timestamp,acc_x,acc_y,acc_z,gyro_x,gyro_y,gyro_z,dt,dt_sec
134033886.0,0.0,0.0,-0.0,0.078,-0.161,-0.039,,
134070722.0,-0.002,-0.001,-0.0,-0.227,-0.038,0.022,36836.0,0.036836
134107743.0,-0.001,-0.001,0.0,-0.044,-0.161,-0.039,37021.0,0.037021
134144843.0,0.001,-0.002,0.0,0.017,-0.099,0.022,37100.0,0.0371
134181707.0,0.001,-0.0,-0.001,-0.105,-0.099,0.022,36864.0,0.036864
134218644.0,-0.001,-0.001,0.0,0.078,-0.038,0.022,36937.0,0.036937
134255230.0,-0.001,-0.0,-0.0,0.017,-0.099,-0.039,36586.0,0.036586
134291799.0,-0.001,0.001,-0.0,-0.044,-0.099,-0.039,36569.0,0.036569
134328676.0,0.001,0.0,-0.0,-0.044,-0.099,0.022,36877.0,0.036877
134365758.0,0.001,0.0,-0.0,-0.105,-0.038,-0.039,37082.0,0.037082
134402898.0,-0.001,-0.003,0.001,-0.044,-0.038,0.022,37140.0,0.03714
134439578.0,-0.004,-0.003,-0.0,-0.044,-0.038,0.022,36680.0,0.03668
134476564.0,-0.004,-0.003,0.001,0.139,-0.099,-0.039,36986.0,0.036986
134513667.0,0.0,0.001,-0.0,0.201,-0.099,0.022,37103.0,0.037103
134550474.0,0.003,0.002,-0.001,-0.044,-0.161,0.022,36807.0,0.036807
134587583.0,0.0,-0.003,-0.0,-0.227,0.023,0.022,37109.0,0.037109
134624559.0,-0.002,-0.002,-0.0,0.201,-0.099,-0.039,36976.0,0.036976
134661459.0,-0.002,0.001,-0.0,-0.227,-0.099,-0.039,36900.0,0.0369
134698405.0,-0.001,-0.002,0.0,0.139,-0.161,0.022,36946.0,0.036946
134735364.0,-0.002,-0.003,0.0,0.078,0.023,0.022,36959.0,0.036959
134772372.0,-0.002,-0.001,-0.001,0.201,-0.161,0.022,37008.0,0.037008
134809344.0,0.002,0.002,-0.001,0.139,-0.038,0.022,36972.0,0.036972
134846379.0,0.003,0.002,-0.001,-0.044,-0.038,-0.039,37035.0,0.037035
134883900.0,0.002,-0.001,-0.001,-0.227,0.023,-0.039,37521.0,0.037521
134920448.0,-0.002,-0.002,0.0,0.078,-0.038,-0.039,36548.0,0.036548
134957270.0,-0.003,-0.001,-0.001,0.078,-0.038,0.022,36822.0,0.036822
134995322.0,-0.001,0.001,-0.0,0.078,-15.602,0.022,38052.0,0.038052
135032404.0,-0.0,0.001,0.0,-0.044,-0.099,0.022,37082.0,0.037082
135069419.0,0.001,-0.002,-0.0,-0.105,-0.038,0.022,37015.0,0.037015
135106241.0,0.0,-0.002,-0.0,0.017,-0.038,-0.039,36822.0,0.036822
135143189.0,-0.001,-0.002,-0.0,0.078,-0.038,-0.039,36948.0,0.036948
135180195.0,-0.002,0.0,-0.001,-0.044,0.023,0.022,37006.0,0.037006
135217156.0,-0.0,-0.001,0.0,-0.044,-0.161,0.022,36961.0,0.036961
135254304.0,0.0,-0.002,-0.0,-0.105,-0.099,0.022,37148.0,0.037148
135291174.0,0.002,-0.003,-0.0,0.139,-0.099,-0.039,36870.0,0.03687
135328672.0,0.001,-0.001,-0.001,0.262,0.023,-0.039,37498.0,0.037498
135365265.0,-0.001,0.0,0.001,0.017,-0.099,-0.039,36593.0,0.036593
135402075.0,-0.002,-0.001,0.0,-0.349,-0.099,0.022,36810.0,0.03681
135439241.0,-0.001,-0.002,0.0,0.078,-0.222,0.022,37166.0,0.037166
135476089.0,0.002,-0.001,-0.0,0.262,-0.038,0.022,36848.0,0.036848
135513048.0,0.001,0.001,-0.0,-0.166,-0.099,0.022,36959.0,0.036959
135550352.0,-0.001,-0.0,0.001,0.139,-0.099,-0.039,37304.0,0.037304
135587175.0,0.001,-0.0,-0.001,-0.166,-0.038,0.022,36823.0,0.036823
135624120.0,0.001,-0.0,-0.001,0.078,-0.038,0.022,36945.0,0.036945
135660965.0,-0.001,-0.003,0.0,-0.105,-0.038,0.022,36845.0,0.036845
135698134.0,-0.002,-0.002,-0.0,0.139,-0.099,0.022,37169.0,0.037169
135734955.0,0.0,0.001,-0.001,0.139,-0.038,-0.039,36821.0,0.036821
135772066.0,-0.001,0.0,-0.001,-0.044,-0.038,0.022,37111.0,0.037111
135808897.0,-0.001,-0.002,0.001,0.262,0.023,0.022,36831.0,0.036831
135846035.0,0.001,-0.002,0.001,-0.105,0.023,0.022,37138.0,0.037138
135883056.0,0.001,-0.001,-0.001,0.139,-0.099,0.022,37021.0,0.037021
135920039.0,-0.003,-0.001,0.001,-0.349,0.145,0.022,36983.0,0.036983
135956811.0,0.0,0.003,-0.001,0.262,-0.038,-0.039,36772.0,0.036772
135994364.0,0.0,0.001,-0.0,-0.471,0.084,0.022,37553.0,0.037553
136030834.0,-0.002,-0.004,0.0,0.017,-0.161,0.022,36470.0,0.03647
136067934.0,-0.001,-0.005,0.001,0.139,-0.038,0.022,37100.0,0.0371
136104788.0,-0.0,-0.0,-0.001,0.139,-0.099,0.022,36854.0,0.036854
136141744.0,-0.003,0.002,-0.0,0.078,-0.099,0.022,36956.0,0.036956
136178699.0,-0.003,0.002,-0.001,-0.105,-0.099,0.022,36955.0,0.036955
136215686.0,0.0,-0.001,-0.0,0.017,-0.099,0.022,36987.0,0.036987
136252718.0,0.003,-0.004,0.0,-0.105,-0.038,0.022,37032.0,0.037032
136289699.0,0.001,-0.002,-0.0,0.139,-0.038,-0.039,36981.0,0.036981
136326651.0,-0.003,0.001,-0.001,0.017,-0.038,-0.039,36952.0,0.036952
136363778.0,-0.005,0.001,-0.0,-0.105,-0.099,0.022,37127.0,0.037127
136400786.0,-0.001,-0.002,0.0,-0.166,-0.222,-0.039,37008.0,0.037008
136437573.0,0.002,-0.003,-0.0,0.262,-0.099,0.022,36787.0,0.036787
136474703.0,0.003,0.001,-0.001,0.017,-0.038,0.083,37130.0,0.03713
136511538.0,0.001,0.002,-0.001,0.078,-0.099,0.022,36835.0,0.036835
136548700.0,-0.0,0.001,0.0,0.017,-0.161,0.022,37162.0,0.037162
136585486.0,0.001,-0.0,-0.001,-0.166,-0.038,0.022,36786.0,0.036786
136622706.0,-0.002,-0.004,-0.001,-0.044,-0.099,0.022,37220.0,0.03722
136659577.0,-0.004,-0.003,-0.0,0.017,-0.038,0.022,36871.0,0.036871
136696619.0,-0.003,-0.001,-0.001,0.078,-0.099,0.083,37042.0,0.037042
136733617.0,-0.001,-0.001,-0.001,0.201,-0.099,0.022,36998.0,0.036998
136770035.0,-0.0,0.001,-0.001,-0.105,-0.099,0.022,36418.0,0.036418
136806410.0,0.002,-0.002,-0.001,-0.105,-0.038,0.022,36375.0,0.036375
136843528.0,0.002,-0.003,0.0,-0.105,-0.161,-0.039,37118.0,0.037118
136880534.0,0.002,-0.002,-0.001,0.201,-0.099,-0.039,37006.0,0.037006
136917344.0,-0.002,0.002,-0.001,0.017,-0.161,-0.039,36810.0,0.03681
136953997.0,-0.002,0.002,-0.001,0.017,-0.099,0.022,36653.0,0.036653
136991333.0,-0.002,-0.001,-0.0,-0.105,-0.038,0.022,37336.0,0.037336
137028351.0,0.001,-0.003,-0.0,0.078,-0.161,0.022,37018.0,0.037018
137065301.0,0.002,-0.003,0.0,0.139,-0.161,-0.039,36950.0,0.03695
137102302.0,0.002,0.002,-0.001,-0.105,-0.099,-0.039,37001.0,0.037001
137140275.0,-0.002,0.002,-0.001,0.201,-0.099,-0.039,37973.0,0.037973
137177215.0,-0.003,-0.002,0.0,-0.227,-0.099,0.022,36940.0,0.03694
137214173.0,-0.001,-0.002,-0.001,0.017,-0.099,-0.039,36958.0,0.036958
137251147.0,0.002,-0.002,0.0,0.078,-0.099,0.022,36974.0,0.036974
137288166.0,0.001,0.0,-0.001,0.017,-0.038,0.022,37019.0,0.037019
137325306.0,0.0,0.001,-0.001,0.078,-0.038,0.022,37140.0,0.03714
137362575.0,-0.001,-0.0,-0.001,-0.044,-0.099,-0.039,37269.0,0.037269
137399553.0,-0.0,-0.002,-0.0,0.017,-0.161,-0.039,36978.0,0.036978
137436237.0,0.001,-0.001,-0.001,0.017,-0.099,0.022,36684.0,0.036684
137473207.0,-0.003,-0.002,0.001,-0.044,0.023,0.022,36970.0,0.03697
137510186.0,-0.001,0.001,-0.001,0.139,-0.099,0.022,36979.0,0.036979
137547187.0,0.001,-0.0,-0.0,0.017,-0.099,0.022,37001.0,0.037001
137584112.0,0.001,0.0,-0.001,-0.227,-0.038,0.022,36925.0,0.036925
137620994.0,-0.001,-0.003,-0.0,0.201,-0.038,-0.039,36882.0,0.036882
137657934.0,-0.002,-0.003,-0.001,0.078,-0.099,-0.039,36940.0,0.03694
137694917.0,-0.001,-0.001,-0.0,0.201,-0.161,-0.039,36983.0,0.036983
137732091.0,0.001,0.001,0.0,-0.105,-0.038,-0.039,37174.0,0.037174
137769043.0,0.002,-0.0,-0.001,-0.105,-0.038,-0.039,36952.0,0.036952
137806011.0,-0.001,-0.002,0.001,-0.044,-0.038,0.022,36968.0,0.036968
137842904.0,0.0,-0.001,-0.001,-0.044,-0.038,-0.039,36893.0,0.036893
137879803.0,-0.0,-0.001,-0.0,0.078,-0.038,-0.039,36899.0,0.036899
137916813.0,-0.001,-0.001,-0.001,0.017,0.023,-0.039,37010.0,0.03701
137952846.0,-0.001,-0.001,-0.001,-0.166,-0.099,-0.039,36033.0,0.036033
137989914.0,-0.001,-0.001,0.001,-0.105,-0.099,0.022,37068.0,0.037068
138026805.0,-0.001,-0.001,-0.0,-0.044,-0.038,0.022,36891.0,0.036891
138063762.0,-0.0,-0.001,-0.0,0.139,-0.099,0.022,36957.0,0.036957
138100423.0,-0.001,-0.001,0.001,0.017,-0.038,0.022,36661.0,0.036661
138137858.0,-0.0,-0.002,-0.0,0.017,-0.038,0.022,37435.0,0.037435
138174845.0,-0.0,-0.002,-0.001,0.017,-0.038,-0.039,36987.0,0.036987
138212291.0,-0.002,0.001,0.0,0.078,0.023,-0.039,37446.0,0.037446
138248814.0,-0.002,0.002,-0.001,-0.532,0.023,0.083,36523.0,0.036523
138285761.0,-0.003,-0.001,0.001,0.689,0.084,-0.039,36947.0,0.036947
138322658.0,-0.004,-0.005,0.001,-0.471,-0.222,0.022,36897.0,0.036897
138359763.0,-0.006,-0.003,0.0,0.201,-0.038,0.022,37105.0,0.037105
138396715.0,-0.006,-0.003,0.001,0.201,0.023,-0.039,36952.0,0.036952
138433603.0,0.001,0.004,-0.001,0.506,-0.222,0.083,36888.0,0.036888
138470585.0,0.006,0.004,-0.001,-0.227,-0.222,0.144,36982.0,0.036982
138507545.0,0.01,0.002,-0.0,-0.105,-0.161,0.144,36960.0,0.03696
138544671.0,0.005,-0.003,0.001,0.017,0.023,0.022,37126.0,0.037126
138581558.0,-0.001,-0.001,0.001,-0.105,-0.099,-0.1,36887.0,0.036887
138618444.0,-0.004,0.002,-0.001,0.078,-0.099,-0.1,36886.0,0.036886
138655480.0,-0.003,0.001,0.001,-0.105,-0.099,0.022,37036.0,0.037036
138692583.0,0.0,-0.002,-0.0,-0.166,-0.038,0.022,37103.0,0.037103
138729381.0,0.002,-0.005,0.001,0.201,-0.038,0.022,36798.0,0.036798
138766435.0,0.004,0.0,-0.001,0.078,-0.038,-0.039,37054.0,0.037054
138803419.0,0.002,0.003,-0.0,0.078,-0.038,-0.039,36984.0,0.036984
138840350.0,-0.004,0.001,-0.0,-0.41,0.023,-0.1,36931.0,0.036931
138877623.0,-0.006,-0.003,0.0,-0.227,-0.099,-0.1,37273.0,0.037273
138914383.0,-0.005,-0.008,0.004,-0.044,-0.222,-0.1,36760.0,0.03676
138951468.0,0.003,-0.001,-0.0,-0.593,-0.222,0.022,37085.0,0.037085
138988323.0,0.007,0.007,-0.0,0.628,-0.038,-0.039,36855.0,0.036855
139025407.0,0.005,0.007,0.002,-0.166,-0.161,0.022,37084.0,0.037084
139062290.0,-0.0,0.001,-0.002,0.017,-0.099,0.022,36883.0,0.036883
139099383.0,-0.002,-0.007,-0.0,0.139,0.084,-0.039,37093.0,0.037093
139136203.0,-0.004,-0.007,-0.002,-0.166,-0.222,-0.1,36820.0,0.03682
139173154.0,-0.007,-0.006,-0.001,0.445,-0.099,-0.1,36951.0,0.036951
139210148.0,-0.005,0.001,-0.001,0.201,-0.222,-0.039,36994.0,0.036994
139247337.0,0.001,0.002,-0.002,0.201,-0.161,0.022,37189.0,0.037189
139284111.0,0.008,-0.001,-0.002,-0.044,-0.222,0.083,36774.0,0.036774
139321273.0,0.007,-0.002,-0.003,0.262,0.145,-0.039,37162.0,0.037162
139362226.0,0.002,-0.002,-0.002,0.201,-0.038,-0.039,40953.0,0.040953
139396902.0,-0.002,0.001,-0.002,0.017,0.084,-0.039,34676.0,0.034676
139434084.0,-0.003,0.0,-0.001,0.078,-0.222,0.022,37182.0,0.037182
139470166.0,-0.003,-0.002,-0.0,-0.166,-0.038,0.022,36082.0,0.036082
139507141.0,-0.001,-0.004,-0.001,0.017,0.023,0.022,36975.0,0.036975
139544146.0,0.0,0.002,-0.006,1.36,-0.344,-0.1,37005.0,0.037005
139580977.0,0.003,-0.007,-0.014,-2.424,0.572,0.327,36831.0,0.036831
139618069.0,0.005,-0.003,-0.005,3.13,0.999,-0.161,37092.0,0.037092
139655084.0,-0.004,-0.008,0.0,-2.729,0.267,0.205,37015.0,0.037015
139691909.0,-0.01,0.012,-0.006,0.567,-0.527,-0.039,36825.0,0.036825
139728849.0,-0.004,-0.004,-0.001,0.078,0.023,0.022,36940.0,0.03694
139765832.0,0.002,0.003,-0.006,-0.044,0.145,0.144,36983.0,0.036983
139802802.0,0.007,-0.004,0.001,0.262,0.206,0.022,36970.0,0.03697
139838838.0,0.01,-0.005,-0.0,-0.532,-0.038,0.083,36036.0,0.036036
139875960.0,0.007,0.003,-0.002,0.506,0.511,-0.039,37122.0,0.037122
139912795.0,0.001,0.007,-0.002,-0.044,0.023,-0.039,36835.0,0.036835
139949961.0,-0.006,0.005,-0.0,-0.227,0.023,-0.039,37166.0,0.037166
139987394.0,-0.008,-0.004,0.001,-0.349,0.023,0.022,37433.0,0.037433
140024867.0,-0.002,-0.011,0.0,-0.044,-0.038,0.022,37473.0,0.037473
140061669.0,0.006,-0.005,0.0,0.506,-0.038,-0.039,36802.0,0.036802
140098165.0,0.008,0.005,-0.002,0.323,-0.099,-0.039,36496.0,0.036496
140134804.0,0.001,0.008,-0.001,0.017,0.023,-0.1,36639.0,0.036639
140171804.0,-0.0,0.001,-0.0,-0.471,0.206,0.022,37000.0,0.037
140208628.0,-0.002,-0.007,0.001,-0.166,0.023,-0.039,36824.0,0.036824
140245642.0,-0.004,-0.006,0.0,-0.166,0.023,-0.039,37014.0,0.037014
140282276.0,-0.002,-0.001,-0.0,0.323,-0.038,-0.039,36634.0,0.036634
140319688.0,0.001,0.005,-0.001,0.262,0.145,-0.039,37412.0,0.037412
140356702.0,0.002,0.003,-0.001,-0.41,-0.038,0.022,37014.0,0.037014
140393480.0,0.001,-0.002,-0.0,0.017,0.023,-0.039,36778.0,0.036778
140430438.0,-0.0,-0.004,0.002,-0.105,-0.038,-0.039,36958.0,0.036958
140467640.0,-0.002,-0.003,0.001,0.139,-0.038,-0.039,37202.0,0.037202
140503465.0,-0.001,-0.001,-0.0,0.017,-0.038,-0.039,35825.0,0.035825
140540554.0,-0.001,0.002,-0.001,0.139,0.023,0.022,37089.0,0.037089
140577572.0,0.0,0.001,0.0,-0.105,-0.038,0.083,37018.0,0.037018
140614508.0,0.001,-0.002,0.001,-0.166,-0.038,0.022,36936.0,0.036936
140652085.0,0.002,-0.003,-0.0,0.078,-0.038,-0.039,37577.0,0.037577
140689486.0,-0.0,-0.001,-0.001,0.262,-0.038,-0.1,37401.0,0.037401
140726332.0,-0.001,0.003,-0.001,0.078,-0.038,-0.039,36846.0,0.036846
140763324.0,-0.001,0.001,0.0,-0.41,-0.099,0.022,36992.0,0.036992
140800378.0,-0.001,-0.005,-0.0,-15.913,-0.038,-0.039,37054.0,0.037054
140837191.0,-0.002,-0.008,0.002,0.078,-0.038,-0.039,36813.0,0.036813
140874373.0,-0.001,-0.001,-0.0,0.323,-0.099,-0.039,37182.0,0.037182
140911151.0,0.002,0.004,-0.001,0.506,-0.038,-0.039,36778.0,0.036778
140948199.0,0.001,0.005,-0.001,-0.166,-0.038,-0.039,37048.0,0.037048
140985282.0,-0.002,-0.001,0.001,-0.41,0.328,0.083,37083.0,0.037083
141022125.0,-0.004,-0.002,0.001,0.323,-0.099,-0.1,36843.0,0.036843
141059052.0,-0.002,-0.007,0.004,-0.105,0.084,0.022,36927.0,0.036927
141096102.0,0.002,-0.002,-0.001,0.994,0.206,-0.039,37050.0,0.03705
141133073.0,0.003,0.004,-0.002,-0.288,0.084,0.083,36971.0,0.036971
141170039.0,-0.001,0.003,-0.001,-0.105,0.206,0.022,36966.0,0.036966
141206959.0,-0.003,-0.003,0.001,-0.288,-0.038,-0.039,36920.0,0.03692
141244136.0,-0.003,-0.004,0.001,-0.105,-0.099,-0.039,37177.0,0.037177
141281122.0,0.0,-0.003,0.001,0.384,-0.038,0.022,36986.0,0.036986
141318663.0,0.004,0.001,-0.001,0.139,-0.099,0.022,37541.0,0.037541
141356046.0,0.004,0.002,-0.001,-0.166,-0.099,0.022,37383.0,0.037383
141393035.0,0.002,-0.001,0.0,-0.227,-0.038,0.022,36989.0,0.036989
141429900.0,0.0,-0.004,0.001,0.017,-0.038,-0.039,36865.0,0.036865
141466836.0,-0.002,-0.002,-0.0,0.078,-0.038,-0.039,36936.0,0.036936
141503910.0,-0.002,0.001,0.001,-0.044,-0.038,0.022,37074.0,0.037074
141540933.0,-0.003,-0.001,-0.001,-0.044,-0.099,0.022,37023.0,0.037023
141577944.0,-0.002,-0.001,0.001,0.078,-0.099,0.022,37011.0,0.037011
141614884.0,0.002,0.001,-0.002,0.017,-0.161,0.022,36940.0,0.03694
141651888.0,0.003,-0.0,-0.001,0.078,-0.099,0.022,37004.0,0.037004
141688879.0,-0.001,-0.001,0.001,-0.105,-0.161,-0.039,36991.0,0.036991
141725717.0,-0.001,-0.001,-0.0,0.078,-0.099,-0.039,36838.0,0.036838
141762688.0,-0.002,-0.003,0.001,0.078,-0.099,0.022,36971.0,0.036971
141799803.0,-0.0,-0.002,-0.0,0.017,-0.161,0.022,37115.0,0.037115
141836786.0,0.001,0.001,-0.0,0.139,-0.099,0.022,36983.0,0.036983
141874100.0,0.003,0.002,-0.001,0.078,-0.161,0.022,37314.0,0.037314
141910731.0,0.002,-0.0,-0.001,-0.044,-0.099,-0.039,36631.0,0.036631
141947561.0,0.001,-0.002,-0.001,-0.044,-0.038,-0.039,36830.0,0.03683
141984525.0,-0.001,-0.002,0.0,-0.044,-0.038,0.022,36964.0,0.036964
142021466.0,-0.002,-0.002,0.001,0.078,-0.099,0.022,36941.0,0.036941
142058619.0,0.0,-0.0,-0.001,0.201,-0.099,0.022,37153.0,0.037153
142095418.0,-0.0,-0.001,-0.0,-0.105,-0.099,-0.039,36799.0,0.036799
142132422.0,-0.001,-0.001,-0.0,-0.044,-0.099,-0.039,37004.0,0.037004
142169546.0,-0.001,-0.001,0.0,0.017,-0.038,-0.039,37124.0,0.037124
142206542.0,0.001,-0.001,-0.001,-0.044,-0.038,0.022,36996.0,0.036996
142243484.0,0.001,-0.001,-0.0,-0.044,-0.099,0.022,36942.0,0.036942
142280363.0,0.001,-0.001,0.0,0.017,-0.038,0.022,36879.0,0.036879
142317399.0,0.0,-0.0,-0.0,0.078,-0.038,-0.039,37036.0,0.037036
142354303.0,-0.0,-0.001,-0.001,0.017,-0.099,0.022,36904.0,0.036904
142391427.0,-0.002,-0.001,-0.001,0.017,-0.038,-0.039,37124.0,0.037124
142428374.0,-0.002,-0.002,-0.0,0.078,-0.099,0.022,36947.0,0.036947
142465351.0,0.0,-0.001,-0.0,0.017,-0.099,0.022,36977.0,0.036977
142502788.0,0.003,0.001,-0.001,0.078,-0.038,0.022,37437.0,0.037437
142539171.0,0.001,0.001,-0.001,-0.044,-0.038,0.022,36383.0,0.036383
142576317.0,-0.002,-0.001,-0.0,0.078,-0.038,-0.039,37146.0,0.037146
142613274.0,-0.002,-0.001,-0.0,-0.105,-0.161,0.022,36957.0,0.036957
142650106.0,-0.0,-0.001,0.0,0.017,-0.038,0.022,36832.0,0.036832
142687246.0,0.001,-0.001,0.0,0.078,-0.038,0.022,37140.0,0.03714
142724217.0,0.002,0.0,-0.001,0.017,-0.099,0.022,36971.0,0.036971
142761157.0,0.001,0.001,-0.001,0.078,-0.038,0.022,36940.0,0.03694
142798179.0,-0.002,-0.001,0.0,-0.166,-0.099,-0.039,37022.0,0.037022
142835131.0,-0.003,-0.002,-0.0,-0.044,-0.099,-0.039,36952.0,0.036952
142871107.0,-0.001,-0.002,0.001,0.017,-0.099,0.022,35976.0,0.035976
142908114.0,0.002,-0.001,-0.0,0.078,-0.038,0.022,37007.0,0.037007
142944899.0,0.001,-0.0,-0.001,0.078,-0.099,0.022,36785.0,0.036785
142982042.0,0.0,-0.001,-0.0,-0.044,-0.038,-0.039,37143.0,0.037143
143018924.0,-0.002,-0.001,0.0,-0.105,-0.038,-0.039,36882.0,0.036882
143055998.0,0.0,-0.001,-0.001,0.017,-0.099,-0.039,37074.0,0.037074
143092994.0,0.001,-0.002,0.0,-0.044,-0.038,0.022,36996.0,0.036996
143129959.0,-0.001,-0.001,-0.0,0.017,-0.038,0.022,36965.0,0.036965
143166777.0,-0.002,-0.001,-0.0,0.017,-0.038,0.022,36818.0,0.036818
143203758.0,0.001,-0.0,-0.0,-0.105,-0.038,-0.039,36981.0,0.036981
143241152.0,0.002,0.001,0.0,0.017,-0.099,0.022,37394.0,0.037394
143277710.0,-0.0,-0.001,0.0,0.017,-0.099,0.022,36558.0,0.036558
143314799.0,-0.002,-0.001,0.001,0.078,-0.099,0.022,37089.0,0.037089
143351722.0,-0.001,-0.001,0.0,0.139,-0.099,0.022,36923.0,0.036923
143388684.0,0.001,-0.001,-0.0,-0.044,-0.099,0.022,36962.0,0.036962
143425684.0,0.002,-0.0,-0.001,-0.044,-0.038,-0.039,37000.0,0.037
143462773.0,0.001,-0.001,-0.0,-0.044,-0.038,0.022,37089.0,0.037089
143499791.0,-0.002,-0.001,0.0,0.017,-0.038,-0.039,37018.0,0.037018
143536560.0,-0.002,-0.001,-0.001,0.139,-0.038,-0.039,36769.0,0.036769
143573602.0,-0.0,-0.001,0.0,-0.044,-0.038,-0.039,37042.0,0.037042
143610081.0,0.002,-0.0,-0.0,0.017,-0.038,-0.039,36479.0,0.036479
143646684.0,0.001,-0.001,0.001,0.017,-0.038,-0.039,36603.0,0.036603
143683653.0,-0.0,-0.001,-0.001,-0.044,-0.038,-0.039,36969.0,0.036969
143720658.0,-0.003,-0.001,-0.0,0.078,-0.038,-0.039,37005.0,0.037005
143757619.0,-0.001,-0.0,-0.001,-0.044,-0.038,-0.039,36961.0,0.036961
143794596.0,0.001,-0.0,-0.001,-0.044,-0.099,-0.039,36977.0,0.036977
143831602.0,0.001,-0.003,-0.001,-0.044,-0.038,0.022,37006.0,0.037006
143868440.0,0.001,-0.0,-0.001,0.201,-0.099,-0.039,36838.0,0.036838
143905420.0,0.0,0.001,-0.0,0.017,-0.099,-0.039,36980.0,0.03698
143943025.0,-0.0,0.0,-0.001,-0.227,-0.099,-0.039,37605.0,0.037605
143980507.0,0.0,-0.003,-0.001,0.017,-0.099,-0.039,37482.0,0.037482
