timestamp,acc_x,acc_y,acc_z,gyro_x,gyro_y,gyro_z,dt,dt_sec
14236489.0,-0.003,0.004,-0.001,0.262,-0.161,0.083,,
14273465.0,-0.003,0.003,-0.0,-0.105,-0.283,-0.039,36976.0,0.036976
14310308.0,-0.001,0.001,-0.0,-0.105,-0.099,-0.1,36843.0,0.036843
14347425.0,0.003,-0.003,-0.0,-0.105,-0.222,-0.039,37117.0,0.037117
14384292.0,0.001,-0.003,-0.0,0.017,-0.161,0.083,36867.0,0.036867
14421283.0,-0.003,-0.001,0.0,0.323,-0.099,0.083,36991.0,0.036991
14458393.0,-0.001,0.004,-0.001,0.078,-0.099,0.022,37110.0,0.03711
14495370.0,0.003,0.003,-0.0,-0.166,-0.099,-0.039,36977.0,0.036977
14532328.0,0.003,-0.001,-0.001,-0.166,-0.038,-0.039,36958.0,0.036958
14569197.0,-0.0,-0.003,0.001,0.017,-0.038,-0.039,36869.0,0.036869
14606300.0,-0.004,-0.001,0.001,0.078,-0.099,-0.039,37103.0,0.037103
14643274.0,-0.003,0.002,-0.0,0.139,-0.038,0.022,36974.0,0.036974
14680101.0,0.002,0.003,-0.0,0.017,-0.161,0.022,36827.0,0.036827
14717253.0,0.004,0.0,-0.001,-0.105,-0.038,-0.039,37152.0,0.037152
14754099.0,0.002,-0.002,-0.0,-0.044,-0.038,-0.039,36846.0,0.036846
14791033.0,-0.002,-0.001,-0.0,0.017,-0.038,-0.039,36934.0,0.036934
14828170.0,-0.002,-0.001,0.0,0.078,-0.038,-0.039,37137.0,0.037137
14865059.0,-0.002,0.001,-0.0,0.078,-0.099,0.022,36889.0,0.036889
14901947.0,0.002,0.002,-0.001,-0.044,-0.099,0.022,36888.0,0.036888
14939139.0,0.002,-0.001,0.0,-0.105,-0.038,-0.039,37192.0,0.037192
14976120.0,0.001,-0.002,-0.0,0.078,-0.038,-0.039,36981.0,0.036981
15013106.0,-0.001,0.001,-0.001,0.017,-0.099,-0.039,36986.0,0.036986
15049934.0,-0.002,0.001,-0.001,0.078,-0.099,-0.039,36828.0,0.036828
15086899.0,-0.001,-0.0,-0.001,-0.166,-0.161,0.022,36965.0,0.036965
15122864.0,0.001,-0.002,-0.001,0.017,-0.161,0.022,35965.0,0.035965
15158843.0,0.001,0.0,-0.0,0.017,-0.038,0.022,35979.0,0.035979
15195588.0,0.001,0.001,-0.001,0.078,-0.099,-0.039,36745.0,0.036745
15232783.0,-0.0,0.001,-0.0,-0.227,-0.161,-0.039,37195.0,0.037195
15269781.0,-0.001,0.0,0.0,-0.044,-0.038,0.022,36998.0,0.036998
15306754.0,-0.001,-0.0,0.0,0.078,-0.161,0.022,36973.0,0.036973
15342706.0,0.0,0.0,-0.0,-0.044,-0.099,0.022,35952.0,0.035952
15378718.0,-0.0,-0.0,-0.0,0.078,-0.099,-0.039,36012.0,0.036012
15414694.0,-0.001,-0.0,0.001,-0.044,-0.038,-0.039,35976.0,0.035976
15450657.0,0.0,0.001,-0.0,0.078,-0.099,-0.039,35963.0,0.035963
15486646.0,0.002,0.001,-0.0,-0.044,-0.099,-0.039,35989.0,0.035989
15522628.0,0.001,-0.0,0.0,-0.105,-0.099,0.022,35982.0,0.035982
15558589.0,-0.002,-0.001,-0.0,0.078,-0.038,0.022,35961.0,0.035961
15594646.0,-0.002,0.0,-0.0,0.017,-0.099,-0.039,36057.0,0.036057
15630566.0,0.001,0.001,0.0,0.078,-0.099,-0.039,35920.0,0.03592
15666536.0,0.001,0.001,-0.001,-0.105,-0.099,0.022,35970.0,0.03597
15702554.0,0.002,-0.0,0.0,-0.166,-0.038,-0.039,36018.0,0.036018
15738497.0,-0.001,-0.001,0.001,-0.227,-0.038,0.022,35943.0,0.035943
15774486.0,-0.002,0.001,0.0,0.078,-0.099,0.022,35989.0,0.035989
15810552.0,-0.002,0.001,0.0,-0.105,-0.038,0.022,36066.0,0.036066
15846458.0,0.001,-0.0,-0.001,0.139,-0.038,-0.039,35906.0,0.035906
15882449.0,0.001,0.0,0.001,0.017,-0.099,-0.039,35991.0,0.035991
15917432.0,0.002,0.001,0.0,0.139,-0.038,0.022,34983.0,0.034983
15952384.0,0.001,-0.005,-0.001,0.689,-0.038,0.022,34952.0,0.034952
15988413.0,0.001,0.002,-0.004,0.445,-0.283,-0.039,36029.0,0.036029
16024374.0,0.003,-0.002,-0.001,-0.044,0.206,0.083,35961.0,0.035961
16060371.0,0.001,0.004,-0.003,-0.288,0.023,-0.039,35997.0,0.035997
16098734.0,0.0,-0.004,-0.0,-0.349,0.084,0.022,38363.0,0.038363
16135347.0,0.002,-0.001,-0.001,0.567,0.267,-0.039,36613.0,0.036613
16172889.0,0.001,0.002,-0.002,0.017,0.145,0.022,37542.0,0.037542
16208310.0,-0.0,0.0,-0.001,-0.288,0.023,0.022,35421.0,0.035421
16246458.0,-0.001,-0.001,-0.0,0.017,0.084,0.022,38148.0,0.038148
16283291.0,0.001,0.001,-0.001,0.017,0.145,-0.039,36833.0,0.036833
16319218.0,0.001,0.001,-0.001,0.017,0.084,-0.039,35927.0,0.035927
16356224.0,-0.0,-0.001,0.0,0.017,0.023,0.022,37006.0,0.037006
16392229.0,-0.001,0.0,-0.0,0.078,-0.038,0.022,36005.0,0.036005
16428152.0,-0.001,0.0,-0.001,-0.044,0.023,0.022,35923.0,0.035923
16464145.0,0.001,0.001,-0.001,-0.227,-0.038,0.022,35993.0,0.035993
16500141.0,0.0,-0.001,0.001,-0.288,0.023,0.022,35996.0,0.035996
16537124.0,-0.0,-0.001,0.001,-0.227,-0.161,0.022,36983.0,0.036983
16574131.0,-0.002,-0.0,0.001,0.078,-0.038,-0.039,37007.0,0.037007
16611117.0,0.0,0.002,-0.001,0.323,0.084,-0.039,36986.0,0.036986
16648089.0,0.003,0.001,0.001,-0.288,-0.099,0.022,36972.0,0.036972
16685212.0,0.0,-0.003,0.002,-0.41,-0.038,0.022,37123.0,0.037123
16722068.0,-0.002,-0.002,0.001,0.078,-0.161,-0.039,36856.0,0.036856
16759048.0,-0.001,0.002,-0.001,0.262,-0.099,0.022,36980.0,0.03698
16796031.0,-0.001,0.002,0.001,0.139,-0.161,-0.039,36983.0,0.036983
16833135.0,-0.001,0.001,0.0,-0.166,-0.222,-0.039,37104.0,0.037104
16869978.0,0.002,-0.0,-0.001,0.262,-0.161,0.022,36843.0,0.036843
16906958.0,0.002,-0.002,0.0,-0.105,-0.161,0.022,36980.0,0.03698
16942887.0,-0.002,-0.002,-0.001,-0.227,-0.161,0.022,35929.0,0.035929
16979939.0,-0.003,-0.001,0.0,0.262,-0.161,-0.039,37052.0,0.037052
17016946.0,-0.0,0.003,-0.001,-0.471,-0.099,0.022,37007.0,0.037007
17053898.0,0.001,0.004,-0.002,0.262,-0.222,0.022,36952.0,0.036952
17089998.0,0.001,0.0,0.001,-0.227,-0.099,0.022,36100.0,0.0361
17126993.0,0.002,0.002,0.002,-0.105,0.084,0.083,36995.0,0.036995
17162950.0,0.003,0.01,-0.002,1.177,0.023,-0.161,35957.0,0.035957
17200113.0,-0.001,-0.0,0.002,-0.471,0.633,0.144,37163.0,0.037163
17236902.0,-0.003,0.003,-0.0,0.933,0.389,-0.222,36789.0,0.036789
17273726.0,-0.001,-0.005,0.002,-1.447,0.389,0.266,36824.0,0.036824
17310906.0,0.002,-0.002,0.002,1.055,0.633,-0.039,37180.0,0.03718
17347692.0,0.002,0.004,-0.004,0.323,0.45,0.022,36786.0,0.036786
17383732.0,-0.001,0.002,0.0,-0.593,-0.038,-0.039,36040.0,0.03604
17420736.0,-0.002,-0.004,0.002,-0.227,0.084,0.022,37004.0,0.037004
17457825.0,-0.002,0.001,0.001,0.323,0.206,-0.039,37089.0,0.037089
17494794.0,-0.0,0.001,0.001,-0.044,-0.161,0.022,36969.0,0.036969
17531791.0,0.001,0.0,-0.0,0.078,-0.161,0.022,36997.0,0.036997
17568611.0,0.0,0.0,0.0,0.139,-0.099,-0.039,36820.0,0.03682
17604609.0,-0.0,0.001,0.0,-0.166,0.084,0.022,35998.0,0.035998
17640616.0,-0.0,0.001,-0.0,-0.105,-0.038,0.022,36007.0,0.036007
17677697.0,-0.0,0.001,0.0,0.139,-0.099,-0.039,37081.0,0.037081
17714711.0,-0.0,0.001,0.0,0.017,0.023,0.083,37014.0,0.037014
17750520.0,-0.001,-0.0,0.001,-0.044,0.084,-0.039,35809.0,0.035809
17787529.0,-0.0,0.0,-0.0,-0.166,-0.099,0.022,37009.0,0.037009
17824447.0,0.0,-0.0,-0.001,-0.044,-0.099,0.022,36918.0,0.036918
17861597.0,0.001,0.001,0.0,0.078,0.084,0.022,37150.0,0.03715
17897465.0,0.0,0.001,-0.0,-0.288,-0.038,0.022,35868.0,0.035868
17934435.0,-0.003,-0.002,0.001,0.017,-0.038,0.022,36970.0,0.03697
17971413.0,-0.0,-0.0,0.0,0.017,-0.099,-0.039,36978.0,0.036978
18008496.0,0.001,0.001,0.001,-0.166,-0.099,-0.039,37083.0,0.037083
18045325.0,0.001,0.001,0.001,-0.105,-0.222,0.022,36829.0,0.036829
18082349.0,-0.0,-0.0,0.0,-0.105,-0.099,0.022,37024.0,0.037024
18119295.0,-0.0,0.0,-0.0,0.201,0.023,0.022,36946.0,0.036946
18156314.0,0.0,0.001,-0.0,0.017,-0.099,0.022,37019.0,0.037019
18193244.0,0.001,-0.0,-0.0,-0.044,-0.099,-0.039,36930.0,0.03693
18229294.0,-0.001,-0.001,0.0,0.139,-0.099,0.022,36050.0,0.03605
18266220.0,-0.002,0.001,-0.0,-0.044,-0.099,0.022,36926.0,0.036926
18303912.0,-0.001,0.001,0.0,0.017,-0.099,0.022,37692.0,0.037692
18341306.0,0.001,0.001,0.0,-0.044,-0.099,0.022,37394.0,0.037394
18378324.0,0.001,0.001,-0.0,-0.044,-0.099,-0.039,37018.0,0.037018
18415315.0,0.0,-0.001,0.0,-0.044,-0.099,0.022,36991.0,0.036991
18452276.0,-0.0,-0.0,-0.0,0.078,-0.161,0.022,36961.0,0.036961
18489254.0,0.001,0.001,-0.001,-0.044,-0.222,0.022,36978.0,0.036978
18530223.0,0.0,0.002,0.001,-0.227,-0.161,0.083,40969.0,0.040969
18564953.0,0.0,-0.002,0.002,-0.41,-0.099,0.022,34730.0,0.03473
18602255.0,-0.0,-0.002,0.001,-0.044,-0.222,0.022,37302.0,0.037302
18639203.0,-0.0,-0.001,-0.0,0.323,-0.222,-0.039,36948.0,0.036948
18676180.0,-0.001,0.001,0.0,0.201,-0.161,0.022,36977.0,0.036977
18712028.0,-0.0,0.001,-0.001,-0.105,-0.222,0.022,35848.0,0.035848
18749004.0,-0.0,-0.001,0.0,0.078,-0.222,0.022,36976.0,0.036976
18785938.0,0.001,-0.002,-0.001,0.078,-0.222,-0.039,36934.0,0.036934
18823122.0,-0.001,0.0,-0.0,0.201,-0.099,-0.039,37184.0,0.037184
18860070.0,-0.0,0.001,-0.001,0.017,-0.161,0.022,36948.0,0.036948
18896931.0,0.0,0.002,-0.0,0.078,-0.038,-0.039,36861.0,0.036861
18933928.0,0.002,0.002,-0.001,-0.41,0.023,0.022,36997.0,0.036997
18970902.0,0.001,-0.002,-0.001,0.078,0.023,0.022,36974.0,0.036974
19007876.0,-0.0,-0.003,-0.001,0.017,0.023,0.022,36974.0,0.036974
19044798.0,-0.001,-0.001,-0.001,0.078,-0.038,-0.039,36922.0,0.036922
19081960.0,-0.0,0.001,-0.001,0.078,0.084,0.022,37162.0,0.037162
19118824.0,0.001,0.002,-0.001,-0.044,-0.161,0.022,36864.0,0.036864
19155784.0,0.001,-0.0,-0.0,0.139,-0.038,0.022,36960.0,0.03696
19192704.0,0.001,-0.002,0.0,0.262,0.145,0.022,36920.0,0.03692
19229754.0,0.0,-0.002,-0.0,0.078,0.023,-0.039,37050.0,0.03705
19266851.0,0.0,0.001,-0.002,0.017,15.464,-0.039,37097.0,0.037097
19303838.0,0.0,0.002,-0.001,0.078,-0.099,-0.039,36987.0,0.036987
19340662.0,0.0,0.001,-0.001,-0.105,-0.038,-0.039,36824.0,0.036824
19377646.0,0.001,-0.001,-0.001,-0.044,0.023,0.022,36984.0,0.036984
19414662.0,0.001,-0.002,-0.0,-0.044,0.023,-0.039,37016.0,0.037016
19451775.0,-0.0,-0.001,-0.0,0.017,0.023,-0.039,37113.0,0.037113
19488711.0,-0.002,0.0,-0.0,0.017,-0.038,0.022,36936.0,0.036936
19525597.0,-0.001,0.001,0.0,0.017,-0.038,0.022,36886.0,0.036886
19561526.0,0.001,-0.001,0.0,-0.044,-0.038,0.022,35929.0,0.035929
19597515.0,0.001,-0.0,-0.001,0.017,-0.099,-0.039,35989.0,0.035989
19633486.0,0.001,-0.001,-0.0,0.017,-0.038,0.022,35971.0,0.035971
19669501.0,-0.002,0.002,-0.001,0.323,0.023,-0.039,36015.0,0.036015
19706811.0,-0.0,0.003,-0.0,-0.105,0.023,0.022,37310.0,0.03731
19743623.0,0.0,-0.002,-0.002,-0.166,-0.099,0.022,36812.0,0.036812
19780584.0,0.001,-0.001,-0.001,0.262,-0.038,-0.039,36961.0,0.036961
19817566.0,0.001,0.0,-0.001,-0.166,-0.099,-0.039,36982.0,0.036982
19853418.0,0.002,0.002,-0.0,0.078,0.084,-0.039,35852.0,0.035852
19889430.0,0.0,0.003,-0.001,0.078,0.023,-0.039,36012.0,0.036012
19925390.0,0.001,0.001,-0.001,-0.288,-0.099,-0.039,35960.0,0.03596
19962491.0,-0.0,-0.001,-0.001,-0.044,-0.038,0.022,37101.0,0.037101
19999395.0,0.0,-0.001,-0.001,0.078,-0.038,0.022,36904.0,0.036904
20036352.0,0.002,0.002,-0.002,0.262,0.023,-0.039,36957.0,0.036957
20072317.0,0.001,-0.001,-0.001,0.201,0.084,0.022,35965.0,0.035965
20108481.0,0.001,0.001,-0.001,-0.227,0.084,0.022,36164.0,0.036164
20145463.0,0.001,0.0,-0.001,0.017,0.084,0.022,36982.0,0.036982
20181244.0,0.001,-0.0,-0.001,-0.166,0.084,0.022,35781.0,0.035781
20218235.0,-0.0,-0.001,-0.001,0.078,-0.038,-0.039,36991.0,0.036991
20255395.0,-0.002,-0.002,0.0,0.078,-0.038,-0.039,37160.0,0.03716
20292356.0,-0.001,-0.0,-0.0,0.017,-0.038,-0.039,36961.0,0.036961
20329234.0,0.001,0.002,-0.001,0.078,-0.038,-0.039,36878.0,0.036878
20366204.0,0.002,0.001,-0.001,-0.166,-0.038,0.022,36970.0,0.03697
20402821.0,0.001,-0.002,0.0,-0.288,-0.099,0.022,36617.0,0.036617
20439321.0,0.0,-0.002,0.001,0.139,0.023,0.022,36500.0,0.0365
20475290.0,-0.0,0.004,0.0,0.139,-0.038,0.022,35969.0,0.035969
20512131.0,-0.0,0.002,0.0,-0.288,-0.222,0.083,36841.0,0.036841
20549126.0,-0.001,-0.001,0.0,-0.41,-0.038,0.022,36995.0,0.036995
20585285.0,-0.002,-0.006,0.001,0.567,-0.222,-0.039,36159.0,0.036159
20622114.0,-0.001,-0.0,-0.0,0.139,-0.038,-0.039,36829.0,0.036829
20659221.0,0.001,0.002,-0.002,0.323,-0.283,0.022,37107.0,0.037107
20696198.0,-0.0,0.002,-0.001,0.017,-0.099,0.022,36977.0,0.036977
20733035.0,-0.002,-0.003,0.0,-0.105,0.023,0.022,36837.0,0.036837
20770166.0,0.002,-0.001,-0.0,-0.471,-0.222,0.083,37131.0,0.037131
20807143.0,0.002,-0.001,-0.0,0.078,0.023,-0.039,36977.0,0.036977
20844024.0,-0.002,0.002,-0.001,-0.044,-0.099,0.022,36881.0,0.036881
20881126.0,-0.003,0.002,0.001,-0.41,-0.344,0.022,37102.0,0.037102
20918425.0,-0.003,-0.003,-0.0,-0.044,-0.283,0.022,37299.0,0.037299
20954979.0,0.002,0.001,-0.001,0.445,-0.099,-0.039,36554.0,0.036554
20991938.0,0.002,0.002,-0.0,-0.227,-0.161,0.022,36959.0,0.036959
21028934.0,0.0,-0.001,-0.0,0.017,-0.038,0.022,36996.0,0.036996
21066097.0,-0.002,-0.001,0.0,-0.044,-0.161,0.022,37163.0,0.037163
21102915.0,-0.001,-0.0,-0.0,0.078,-0.161,0.022,36818.0,0.036818
21140031.0,0.002,0.002,-0.001,0.078,-0.161,-0.039,37116.0,0.037116
21177023.0,0.002,0.001,-0.0,-0.044,-0.099,0.022,36992.0,0.036992
21213850.0,-0.0,-0.001,0.0,-0.044,-0.038,0.022,36827.0,0.036827
21250848.0,-0.003,0.0,-0.0,0.139,-0.099,0.022,36998.0,0.036998
21287834.0,-0.001,0.001,-0.001,-0.105,-0.099,-0.039,36986.0,0.036986
21325862.0,0.0,-0.0,0.0,-0.044,-0.038,0.022,38028.0,0.038028
21362939.0,-0.0,-0.001,0.001,0.017,-0.099,0.022,37077.0,0.037077
21399910.0,0.002,0.001,-0.001,-0.044,-0.038,0.022,36971.0,0.036971
21436899.0,0.001,0.001,-0.0,0.139,-0.038,0.022,36989.0,0.036989
21473781.0,-0.001,-0.0,0.001,-0.044,-0.038,-0.039,36882.0,0.036882
21510716.0,-0.0,-0.0,-0.001,0.017,-0.038,-0.039,36935.0,0.036935
21547702.0,0.001,0.0,-0.0,-0.044,-0.099,-0.039,36986.0,0.036986
21584814.0,0.002,0.0,-0.001,-0.166,-0.099,0.022,37112.0,0.037112
21621677.0,-0.001,-0.001,0.001,0.139,-0.099,0.022,36863.0,0.036863
21658662.0,-0.001,0.0,0.0,0.017,-0.099,0.022,36985.0,0.036985
21694595.0,0.001,0.001,-0.0,-0.044,-0.099,0.022,35933.0,0.035933
21731768.0,0.001,-0.001,-0.0,0.017,-0.038,0.022,37173.0,0.037173
21768639.0,0.0,0.0,0.0,0.017,-0.038,0.022,36871.0,0.036871
21804703.0,-0.0,0.0,-0.0,0.201,-0.038,0.022,36064.0,0.036064
21841583.0,0.0,0.001,0.0,-0.044,-0.038,-0.039,36880.0,0.03688
21878702.0,-0.0,0.001,-0.001,-0.105,-0.099,0.022,37119.0,0.037119
21915666.0,0.001,0.0,0.0,0.017,-0.038,-0.039,36964.0,0.036964
21951505.0,-0.0,0.0,0.0,0.078,-0.038,0.022,35839.0,0.035839
21987494.0,-0.0,0.001,0.0,-0.044,-0.038,0.022,35989.0,0.035989
22023459.0,-0.001,0.001,-0.0,0.017,-0.099,-0.039,35965.0,0.035965
22061501.0,0.0,-0.001,-0.0,-0.044,-0.038,0.022,38042.0,0.038042
22098426.0,0.002,0.0,-0.001,0.017,-0.099,0.022,36925.0,0.036925
22135416.0,0.001,0.0,-0.0,0.017,-0.099,-0.039,36990.0,0.03699
22171599.0,-0.001,-0.0,0.0,0.017,-0.038,-0.039,36183.0,0.036183
22208371.0,-0.001,0.0,-0.0,0.017,-0.038,-0.039,36772.0,0.036772
22245432.0,-0.001,-0.001,0.0,-0.105,-0.161,0.022,37061.0,0.037061
22282508.0,0.001,-0.0,0.0,0.017,-0.099,0.022,37076.0,0.037076
22319083.0,0.001,0.001,-0.0,0.017,-0.099,0.022,36575.0,0.036575
22356317.0,-0.0,0.001,-0.0,0.017,-0.099,0.022,37234.0,0.037234
22393478.0,-0.0,-0.0,-0.0,-0.105,-0.038,-0.039,37161.0,0.037161
22430300.0,-0.001,-0.001,0.0,0.017,-0.099,-0.039,36822.0,0.036822
22467405.0,-0.001,-0.0,0.001,-0.105,-0.099,0.022,37105.0,0.037105
22503770.0,0.001,0.001,-0.0,0.139,-0.099,0.083,36365.0,0.036365
22540390.0,0.002,0.001,-0.0,0.017,-0.038,0.022,36620.0,0.03662
22577399.0,-0.001,0.001,-0.001,-0.105,-0.099,0.022,37009.0,0.037009
22614332.0,-0.001,-0.001,-0.0,0.078,-0.099,-0.039,36933.0,0.036933
22651167.0,0.0,-0.001,0.0,-0.105,-0.099,-0.039,36835.0,0.036835
22688322.0,0.0,-0.0,-0.001,0.017,-0.099,0.022,37155.0,0.037155
22725310.0,-0.0,-0.0,-0.0,0.017,-0.099,0.022,36988.0,0.036988
22762210.0,-0.001,0.001,-0.001,0.017,-0.099,0.022,36900.0,0.0369
22799088.0,0.0,0.001,0.0,-0.044,-0.038,0.022,36878.0,0.036878
22836240.0,0.002,0.001,-0.0,-0.166,-0.038,-0.039,37152.0,0.037152
22873250.0,0.0,-0.001,-0.0,0.017,-0.099,-0.039,37010.0,0.03701
22910081.0,-0.001,-0.002,0.001,0.078,-0.038,-0.039,36831.0,0.036831
22947085.0,-0.002,0.001,0.0,0.017,-0.099,0.022,37004.0,0.037004
22984109.0,0.001,0.002,-0.0,0.017,-0.161,0.022,37024.0,0.037024
23021028.0,0.002,0.002,-0.001,-0.105,-0.038,0.022,36919.0,0.036919
23058151.0,-0.0,-0.001,-0.001,-0.105,-0.099,0.022,37123.0,0.037123
23094983.0,-0.002,-0.003,0.001,0.078,-0.099,-0.039,36832.0,0.036832
23132089.0,-0.001,-0.0,0.0,0.078,-0.099,-0.039,37106.0,0.037106
23169107.0,-0.001,0.001,-0.001,0.139,-0.038,-0.039,37018.0,0.037018
23205944.0,0.001,0.001,-0.001,0.017,-0.038,0.022,36837.0,0.036837
23241908.0,0.0,-0.0,-0.0,0.017,-0.038,0.022,35964.0,0.035964
23278924.0,-0.001,-0.0,-0.001,0.017,-0.038,0.022,37016.0,0.037016
23316009.0,0.0,0.001,-0.0,-0.044,0.084,0.022,37085.0,0.037085
23352863.0,0.0,0.001,-0.001,0.078,-0.038,0.022,36854.0,0.036854
23389865.0,0.0,-0.001,-0.0,-0.044,-0.038,0.022,37002.0,0.037002
23426801.0,-0.001,-0.0,0.0,-0.044,-0.038,0.022,36936.0,0.036936
23463757.0,0.001,-0.0,0.0,0.078,-0.038,0.022,36956.0,0.036956
23500736.0,0.001,-0.0,-0.0,-0.105,-0.038,0.022,36979.0,0.036979
23536718.0,-0.0,0.002,-0.0,0.017,-0.038,0.022,35982.0,0.035982
23572765.0,0.0,-0.001,-0.0,-0.105,-0.038,0.022,36047.0,0.036047
23607676.0,-0.001,-0.001,-0.0,0.078,-0.038,-0.039,34911.0,0.034911
23644647.0,0.001,0.0,-0.0,0.078,-0.099,-0.039,36971.0,0.036971
23680675.0,0.001,0.001,-0.001,-0.044,-0.099,0.083,36028.0,0.036028
23717624.0,-0.0,-0.001,-0.0,-0.105,-0.099,-0.039,36949.0,0.036949
23754602.0,-0.001,-0.001,0.0,0.078,-0.099,0.022,36978.0,0.036978
23791590.0,0.001,0.001,-0.001,0.078,-0.099,0.022,36988.0,0.036988
23828734.0,0.0,0.001,-0.0,-0.044,-0.099,-0.039,37144.0,0.037144
23865739.0,-0.001,0.0,0.0,-0.105,-0.099,0.022,37005.0,0.037005
23902528.0,-0.0,-0.0,0.0,0.078,-0.038,0.022,36789.0,0.036789
23939543.0,0.0,0.0,-0.0,0.017,-0.038,-0.039,37015.0,0.037015
23976527.0,0.0,0.001,-0.0,-0.044,-0.099,-0.039,36984.0,0.036984
24013515.0,-0.0,-0.002,0.001,-0.105,-0.099,-0.039,36988.0,0.036988
24050468.0,-0.001,-0.0,0.0,0.078,-0.099,0.022,36953.0,0.036953
24087510.0,0.0,0.001,0.001,0.017,-0.038,-0.039,37042.0,0.037042
24124418.0,-0.001,0.001,-0.0,0.017,-0.038,0.022,36908.0,0.036908
24161474.0,-0.0,0.0,-0.0,0.017,-0.099,-0.039,37056.0,0.037056
24197402.0,-0.0,-0.002,0.0,-0.105,-0.099,-0.039,35928.0,0.035928
