timestamp,acc_x,acc_y,acc_z,gyro_x,gyro_y,gyro_z,dt,dt_sec
25284500.0,0.074,0.007,1.018,0.366,-0.061,-0.122,,
25320348.0,0.073,0.01,1.019,0.183,0.061,-0.061,35848.0,0.035848
25356326.0,0.072,0.006,1.02,0.183,0.0,-0.122,35978.0,0.035978
25392445.0,0.073,0.006,1.019,0.305,0.0,-0.061,36119.0,0.036119
25428445.0,0.074,0.006,1.019,0.427,0.0,-0.122,36000.0,0.036
25464272.0,0.073,0.008,1.019,0.244,0.0,-0.061,35827.0,0.035827
25500257.0,0.072,0.008,1.018,0.183,0.0,-0.061,35985.0,0.035985
25536360.0,0.072,0.006,1.018,0.305,-0.061,-0.122,36103.0,0.036103
25573339.0,0.073,0.006,1.019,0.366,0.0,-0.122,36979.0,0.036979
25608203.0,0.073,0.006,1.018,0.305,-0.061,-0.122,34864.0,0.034864
25645289.0,0.073,0.006,1.019,0.427,0.0,-0.061,37086.0,0.037086
25681133.0,0.073,0.008,1.017,0.183,0.0,-0.061,35844.0,0.035844
25716886.0,0.072,0.007,1.018,0.427,-0.061,-0.122,35753.0,0.035753
25754155.0,0.073,0.006,1.018,0.183,0.0,-0.061,37269.0,0.037269
25790243.0,0.073,0.007,1.019,0.427,-0.061,-0.122,36088.0,0.036088
25827076.0,0.072,0.006,1.018,0.305,0.0,-0.061,36833.0,0.036833
25862991.0,0.071,0.007,1.019,0.305,-0.061,-0.122,35915.0,0.035915
25900160.0,0.072,0.007,1.019,0.244,0.0,-0.061,37169.0,0.037169
25935994.0,0.074,0.007,1.018,0.244,0.0,-0.061,35834.0,0.035834
25971937.0,0.073,0.006,1.018,0.366,-0.061,-0.122,35943.0,0.035943
26007911.0,0.072,0.007,1.019,0.305,0.0,-0.122,35974.0,0.035974
26042917.0,0.072,0.007,1.019,0.244,0.0,-0.061,35006.0,0.035006
26077864.0,0.072,0.007,1.019,0.427,-0.061,-0.122,34947.0,0.034947
26112887.0,0.073,0.007,1.018,0.305,0.0,-0.061,35023.0,0.035023
26147823.0,0.073,0.007,1.019,0.244,0.0,-0.122,34936.0,0.034936
26182844.0,0.072,0.007,1.019,0.244,-0.061,-0.122,35021.0,0.035021
26217851.0,0.072,0.006,1.019,0.244,-0.061,-0.061,35007.0,0.035007
26253780.0,0.072,0.009,1.018,0.488,-0.061,-0.122,35929.0,0.035929
26290776.0,0.072,0.007,1.019,0.183,-0.061,-0.061,36996.0,0.036996
26326741.0,0.072,0.007,1.019,0.366,-0.061,-0.061,35965.0,0.035965
26362707.0,0.073,0.005,1.019,0.183,0.0,-0.061,35966.0,0.035966
26397708.0,0.073,0.007,1.018,0.427,0.0,-0.122,35001.0,0.035001
26432662.0,0.073,0.007,1.018,0.305,-0.061,-0.061,34954.0,0.034954
26469648.0,0.073,0.008,1.018,0.244,-0.061,-0.061,36986.0,0.036986
26504684.0,0.072,0.007,1.019,0.305,-0.061,-0.061,35036.0,0.035036
26539658.0,0.074,0.006,1.018,0.305,0.0,-0.122,34974.0,0.034974
26574595.0,0.073,0.006,1.019,0.305,-0.061,-0.061,34937.0,0.034937
26609558.0,0.072,0.007,1.019,0.305,-0.061,-0.061,34963.0,0.034963
26644579.0,0.072,0.008,1.019,0.244,-0.061,-0.061,35021.0,0.035021
26681501.0,0.072,0.007,1.019,0.305,-0.061,-0.061,36922.0,0.036922
26717588.0,0.072,0.006,1.019,0.244,-0.061,-0.061,36087.0,0.036087
26752517.0,0.072,0.007,1.019,0.305,-0.061,-0.061,34929.0,0.034929
26787458.0,0.073,0.007,1.019,0.366,0.0,-0.061,34941.0,0.034941
26822426.0,0.072,0.007,1.018,0.305,-0.122,-0.122,34968.0,0.034968
26857399.0,0.072,0.007,1.018,0.427,-0.061,-0.061,34973.0,0.034973
26892391.0,0.072,0.007,1.019,0.061,0.0,-0.061,34992.0,0.034992
26927362.0,0.073,0.006,1.019,0.427,-0.061,-0.061,34971.0,0.034971
26962412.0,0.073,0.006,1.019,0.244,0.0,-0.061,35050.0,0.03505
26998328.0,0.073,0.007,1.018,0.366,-0.061,-0.122,35916.0,0.035916
27034272.0,0.073,0.006,1.019,0.305,0.0,-0.061,35944.0,0.035944
27069286.0,0.072,0.007,1.019,0.305,-0.122,-0.061,35014.0,0.035014
27104239.0,0.072,0.007,1.019,0.244,-0.061,-0.061,34953.0,0.034953
27139219.0,0.073,0.006,1.019,0.244,0.0,-0.061,34980.0,0.03498
27176257.0,0.072,0.006,1.019,0.305,-0.061,-0.061,37038.0,0.037038
27212243.0,0.072,0.007,1.019,0.305,0.0,-0.061,35986.0,0.035986
27248148.0,0.072,0.007,1.019,0.305,0.0,-0.061,35905.0,0.035905
27284180.0,0.072,0.006,1.019,0.366,-0.061,-0.122,36032.0,0.036032
27320104.0,0.072,0.006,1.019,0.305,-0.061,-0.122,35924.0,0.035924
27356095.0,0.073,0.006,1.019,0.305,-0.061,-0.061,35991.0,0.035991
27392061.0,0.072,0.007,1.019,0.305,-0.061,-0.122,35966.0,0.035966
27427038.0,0.072,0.007,1.019,0.183,0.0,-0.061,34977.0,0.034977
27462162.0,0.073,0.007,1.019,0.366,-0.061,-0.122,35124.0,0.035124
27498993.0,0.073,0.007,1.019,0.244,0.0,-0.061,36831.0,0.036831
27534026.0,0.072,0.007,1.019,0.244,-0.061,-0.061,35033.0,0.035033
27569014.0,0.071,0.007,1.019,0.244,-0.061,-0.061,34988.0,0.034988
27603937.0,0.072,0.007,1.019,0.305,-0.061,-0.122,34923.0,0.034923
27638949.0,0.072,0.007,1.019,0.366,-0.061,-0.061,35012.0,0.035012
27673910.0,0.073,0.007,1.019,0.244,0.0,-0.061,34961.0,0.034961
27708918.0,0.073,0.007,1.019,0.244,-0.061,-0.061,35008.0,0.035008
27743873.0,0.073,0.006,1.019,0.244,0.0,-0.122,34955.0,0.034955
27779890.0,0.073,0.007,1.019,0.305,0.0,-0.122,36017.0,0.036017
27815837.0,0.073,0.007,1.019,0.305,0.0,-0.122,35947.0,0.035947
27851853.0,0.072,0.007,1.018,0.305,0.0,-0.061,36016.0,0.036016
27887776.0,0.073,0.007,1.018,0.305,-0.061,-0.122,35923.0,0.035923
27923763.0,0.073,0.007,1.019,0.244,0.0,-0.061,35987.0,0.035987
27958820.0,0.072,0.007,1.018,0.305,-0.061,-0.122,35057.0,0.035057
27995921.0,0.072,0.006,1.019,0.305,-0.061,-0.061,37101.0,0.037101
28032703.0,0.072,0.007,1.019,0.305,-0.061,-0.061,36782.0,0.036782
28068696.0,0.073,0.006,1.018,0.244,0.0,-0.122,35993.0,0.035993
28103687.0,0.073,0.005,1.019,0.244,-0.061,-0.061,34991.0,0.034991
28138655.0,0.073,0.007,1.019,0.366,-0.061,-0.122,34968.0,0.034968
28173638.0,0.073,0.006,1.018,0.305,-0.061,-0.122,34983.0,0.034983
28210657.0,0.073,0.007,1.019,0.366,0.0,-0.061,37019.0,0.037019
28246629.0,0.073,0.008,1.018,0.244,-0.061,-0.061,35972.0,0.035972
28282733.0,0.072,0.006,1.019,0.061,-0.122,-0.061,36104.0,0.036104
28319589.0,0.072,0.006,1.019,0.244,-0.122,-0.122,36856.0,0.036856
28355503.0,0.072,0.007,1.019,0.305,-0.122,-0.122,35914.0,0.035914
28392677.0,0.073,0.007,1.019,0.183,-0.061,-0.122,37174.0,0.037174
28429459.0,0.073,0.008,1.018,0.366,-0.061,-0.061,36782.0,0.036782
28465538.0,0.073,0.007,1.019,0.366,-0.061,-0.122,36079.0,0.036079
28501475.0,0.073,0.007,1.019,0.183,-0.061,-0.061,35937.0,0.035937
28537604.0,0.071,0.007,1.019,0.183,-0.122,-0.122,36129.0,0.036129
28573450.0,0.073,0.007,1.019,0.305,-0.122,-0.061,35846.0,0.035846
28610474.0,0.072,0.007,1.019,0.366,-0.122,-0.061,37024.0,0.037024
28647411.0,0.073,0.006,1.019,0.305,-0.061,-0.122,36937.0,0.036937
28683384.0,0.072,0.006,1.019,0.366,-0.122,-0.122,35973.0,0.035973
28719504.0,0.072,0.006,1.019,0.366,-0.061,-0.061,36120.0,0.03612
28756482.0,0.073,0.006,1.019,0.366,-0.061,-0.122,36978.0,0.036978
28793333.0,0.073,0.006,1.019,0.366,-0.061,-0.061,36851.0,0.036851
28829246.0,0.073,0.007,1.019,0.244,0.0,-0.061,35913.0,0.035913
28866430.0,0.072,0.007,1.019,0.244,0.0,-0.061,37184.0,0.037184
28901933.0,0.072,0.007,1.019,0.305,-0.061,-0.122,35503.0,0.035503
28939273.0,0.074,0.008,1.019,0.366,-0.061,-0.122,37340.0,0.03734
28975191.0,0.072,0.006,1.018,0.183,0.0,-0.122,35918.0,0.035918
29011158.0,0.072,0.005,1.019,0.305,-0.061,-0.061,35967.0,0.035967
29048809.0,0.072,0.006,1.018,0.366,0.0,-0.061,37651.0,0.037651
29084191.0,0.072,0.007,1.019,0.366,0.0,-0.122,35382.0,0.035382
29121089.0,0.073,0.007,1.019,0.244,-0.061,-0.061,36898.0,0.036898
29158275.0,0.074,0.007,1.019,0.183,0.0,-0.061,37186.0,0.037186
29194061.0,0.073,0.006,1.019,0.366,-0.061,-0.122,35786.0,0.035786
29231228.0,0.072,0.006,1.019,0.244,-0.061,-0.122,37167.0,0.037167
29268091.0,0.071,0.007,1.018,0.366,-0.061,-0.122,36863.0,0.036863
29305078.0,0.073,0.007,1.019,0.244,-0.061,-0.061,36987.0,0.036987
29342039.0,0.074,0.007,1.018,0.244,-0.061,-0.061,36961.0,0.036961
29377977.0,0.074,0.006,1.02,0.244,-0.061,-0.061,35938.0,0.035938
29416109.0,0.073,0.007,1.018,0.244,-0.061,-0.122,38132.0,0.038132
29453127.0,0.072,0.006,1.02,0.305,-0.061,-0.061,37018.0,0.037018
29489934.0,0.071,0.007,1.019,0.122,-0.061,-0.122,36807.0,0.036807
29525919.0,0.072,0.007,1.019,0.366,-0.061,-0.061,35985.0,0.035985
29562874.0,0.073,0.007,1.019,0.183,-0.061,-0.061,36955.0,0.036955
29598901.0,0.073,0.006,1.019,0.427,-0.061,-0.122,36027.0,0.036027
29635884.0,0.071,0.007,1.019,0.061,-0.061,-0.061,36983.0,0.036983
29672826.0,0.071,0.007,1.019,0.488,-0.122,-0.061,36942.0,0.036942
29709820.0,0.072,0.006,1.019,0.244,-0.122,-0.122,36994.0,0.036994
29746957.0,0.074,0.007,1.018,0.244,-0.061,-0.061,37137.0,0.037137
29783768.0,0.074,0.006,1.019,0.366,-0.061,-0.061,36811.0,0.036811
29819765.0,0.072,0.006,1.019,0.244,-0.061,-0.061,35997.0,0.035997
29855787.0,0.072,0.007,1.019,0.427,-0.122,-0.061,36022.0,0.036022
29891711.0,0.073,0.008,1.019,0.122,-0.061,-0.061,35924.0,0.035924
29928715.0,0.072,0.007,1.02,0.061,-0.061,-0.122,37004.0,0.037004
29964864.0,0.073,0.006,1.02,0.366,-0.061,-0.061,36149.0,0.036149
30001675.0,0.073,0.006,1.02,0.366,-0.061,-0.061,36811.0,0.036811
30038619.0,0.073,0.007,1.019,0.427,0.0,-0.122,36944.0,0.036944
30074626.0,0.073,0.008,1.019,0.366,-0.061,-0.061,36007.0,0.036007
30110566.0,0.073,0.007,1.019,0.122,-0.061,-0.061,35940.0,0.03594
30147802.0,0.072,0.005,1.019,0.305,-0.061,-0.061,37236.0,0.037236
30184548.0,0.071,0.006,1.019,0.549,-0.061,-0.122,36746.0,0.036746
30220703.0,0.074,0.008,1.018,0.305,-0.061,-0.061,36155.0,0.036155
30256556.0,0.075,0.007,1.019,0.366,-0.061,-0.122,35853.0,0.035853
30292487.0,0.074,0.006,1.019,0.122,0.0,-0.122,35931.0,0.035931
30328653.0,0.071,0.006,1.019,0.366,-0.061,-0.122,36166.0,0.036166
30369603.0,0.071,0.007,1.019,0.305,0.0,-0.061,40950.0,0.04095
30410228.0,0.072,0.009,1.018,0.244,-0.061,-0.061,40625.0,0.040625
30447447.0,0.072,0.007,1.019,0.366,-0.061,-0.061,37219.0,0.037219
30484365.0,0.074,0.007,1.02,0.244,0.0,-0.061,36918.0,0.036918
30520404.0,0.074,0.007,1.019,0.305,-0.061,-0.061,36039.0,0.036039
30557510.0,0.072,0.007,1.019,0.305,0.0,-0.061,37106.0,0.037106
30593346.0,0.07,0.006,1.019,0.305,-0.061,-0.122,35836.0,0.035836
30629384.0,0.071,0.006,1.02,0.305,-0.061,-0.061,36038.0,0.036038
30666265.0,0.074,0.007,1.018,0.305,-0.061,-0.061,36881.0,0.036881
30703644.0,0.075,0.007,1.019,0.427,-0.061,-0.061,37379.0,0.037379
30740914.0,0.073,0.008,1.019,0.061,0.0,-0.061,37270.0,0.03727
30777370.0,0.072,0.006,1.019,0.427,-0.061,-0.122,36456.0,0.036456
30814287.0,0.072,0.007,1.019,0.305,0.0,-0.061,36917.0,0.036917
30851189.0,0.074,0.008,1.018,0.366,-0.061,-0.061,36902.0,0.036902
30888155.0,0.078,0.007,1.019,0.305,-0.061,-0.061,36966.0,0.036966
30925319.0,0.081,0.008,1.018,0.305,0.0,-0.122,37164.0,0.037164
30961318.0,0.078,0.008,1.018,0.061,0.061,-0.183,35999.0,0.035999
30997088.0,0.063,0.004,1.02,0.061,0.122,-0.244,35770.0,0.03577
31033091.0,0.056,0.003,1.02,0.366,-0.061,-0.183,36003.0,0.036003
31070045.0,0.065,0.007,1.019,0.793,-0.061,-0.122,36954.0,0.036954
31107092.0,0.073,0.01,1.018,0.0,-0.061,0.061,37047.0,0.037047
31144017.0,0.074,0.006,1.02,0.366,0.0,0.0,36925.0,0.036925
31180176.0,0.076,0.007,1.018,0.305,0.0,-0.061,36159.0,0.036159
31216981.0,0.077,0.007,1.019,0.366,-0.122,-0.122,36805.0,0.036805
31253986.0,0.075,0.008,1.019,0.244,0.0,-0.122,37005.0,0.037005
31290101.0,0.069,0.005,1.019,0.061,0.061,-0.061,36115.0,0.036115
31326106.0,0.065,0.005,1.019,0.183,-0.061,0.0,36005.0,0.036005
31361898.0,0.069,0.006,1.019,0.61,-0.061,0.0,35792.0,0.035792
31398940.0,0.075,0.007,1.019,0.305,-0.061,-0.061,37042.0,0.037042
31434874.0,0.076,0.008,1.019,0.305,-0.061,0.0,35934.0,0.035934
31470862.0,0.075,0.008,1.018,0.183,0.0,-0.061,35988.0,0.035988
31506907.0,0.073,0.005,1.02,0.244,-0.061,-0.061,36045.0,0.036045
31543819.0,0.072,0.006,1.019,0.305,-0.122,-0.061,36912.0,0.036912
31580852.0,0.071,0.007,1.019,0.305,-0.061,-0.122,37033.0,0.037033
31617850.0,0.072,0.008,1.018,0.305,0.0,-0.061,36998.0,0.036998
31653751.0,0.072,0.007,1.02,0.244,-0.122,-0.061,35901.0,0.035901
31690739.0,0.073,0.007,1.019,0.122,-0.122,-0.061,36988.0,0.036988
31727906.0,0.074,0.007,1.019,0.366,-0.122,-0.122,37167.0,0.037167
31764856.0,0.073,0.007,1.019,0.305,-0.122,-0.061,36950.0,0.03695
31801830.0,0.071,0.008,1.019,0.244,-0.122,-0.122,36974.0,0.036974
31839395.0,0.071,0.006,1.019,0.366,-0.122,-0.061,37565.0,0.037565
31876821.0,0.072,0.006,1.019,0.305,-0.061,-0.061,37426.0,0.037426
31913643.0,0.073,0.006,1.018,0.305,-0.122,-0.061,36822.0,0.036822
31950739.0,0.073,0.007,1.019,0.244,-0.061,-0.061,37096.0,0.037096
31987789.0,0.073,0.007,1.019,0.366,-0.122,-0.061,37050.0,0.03705
32024619.0,0.073,0.006,1.019,0.366,-0.061,-0.122,36830.0,0.03683
32060569.0,0.072,0.006,1.019,0.244,-0.061,-0.061,35950.0,0.03595
32097538.0,0.072,0.007,1.019,0.305,-0.061,-0.061,36969.0,0.036969
32134547.0,0.072,0.006,1.02,0.244,-0.061,-0.122,37009.0,0.037009
32171538.0,0.072,0.006,1.018,0.366,-0.061,-0.122,36991.0,0.036991
32207142.0,0.072,0.005,1.019,0.305,-0.061,-0.122,35604.0,0.035604
32243528.0,0.072,0.007,1.019,0.244,-0.061,-0.183,36386.0,0.036386
32280492.0,0.073,0.008,1.019,0.305,-0.061,-0.183,36964.0,0.036964
32317510.0,0.073,0.008,1.019,0.305,-0.061,-0.122,37018.0,0.037018
32354614.0,0.074,0.007,1.019,0.305,0.0,-0.122,37104.0,0.037104
32390451.0,0.074,0.007,1.018,0.305,0.0,-0.122,35837.0,0.035837
32426436.0,0.073,0.008,1.018,0.366,0.0,-0.122,35985.0,0.035985
32462391.0,0.073,0.008,1.018,0.244,-0.061,-0.061,35955.0,0.035955
32499408.0,0.072,0.008,1.018,0.366,0.0,-0.122,37017.0,0.037017
32536412.0,0.073,0.006,1.018,0.244,-0.061,-0.122,37004.0,0.037004
32573360.0,0.073,0.006,1.019,0.244,0.0,-0.061,36948.0,0.036948
32608304.0,0.073,0.006,1.019,0.244,-0.061,-0.061,34944.0,0.034944
32645343.0,0.072,0.007,1.018,0.305,-0.061,-0.061,37039.0,0.037039
32681313.0,0.073,0.008,1.018,0.305,-0.061,-0.122,35970.0,0.03597
32718272.0,0.073,0.007,1.018,0.305,0.0,-0.122,36959.0,0.036959
32754243.0,0.072,0.007,1.019,0.427,-0.061,-0.122,35971.0,0.035971
32791216.0,0.072,0.006,1.019,0.305,0.0,-0.061,36973.0,0.036973
32827274.0,0.072,0.007,1.019,0.244,-0.061,-0.061,36058.0,0.036058
32864358.0,0.072,0.007,1.019,0.305,-0.061,-0.122,37084.0,0.037084
32900806.0,0.073,0.007,1.018,0.366,-0.061,-0.061,36448.0,0.036448
32938192.0,0.072,0.007,1.018,0.183,-0.061,-0.061,37386.0,0.037386
32974273.0,0.071,0.007,1.017,0.549,-0.183,-0.061,36081.0,0.036081
33011129.0,0.073,0.004,1.018,0.793,0.061,-0.122,36856.0,0.036856
33047143.0,0.069,0.008,1.018,0.671,-0.244,-0.183,36014.0,0.036014
33084106.0,0.07,0.005,1.019,0.0,-0.305,0.0,36963.0,0.036963
33120125.0,0.072,0.008,1.018,0.427,-0.305,-0.122,36019.0,0.036019
33156063.0,0.074,0.008,1.02,0.427,-0.244,-0.122,35938.0,0.035938
33193092.0,0.074,0.007,1.018,0.244,-0.061,-0.061,37029.0,0.037029
33230199.0,0.072,0.007,1.019,0.305,-0.061,-0.061,37107.0,0.037107
33267158.0,0.071,0.006,1.019,0.244,-0.061,-0.061,36959.0,0.036959
33304133.0,0.072,0.007,1.019,0.305,-0.122,-0.122,36975.0,0.036975
33340956.0,0.073,0.007,1.019,0.366,-0.061,-0.122,36823.0,0.036823
33377921.0,0.074,0.007,1.018,0.122,0.0,-0.061,36965.0,0.036965
33413963.0,0.073,0.007,1.019,0.305,-0.061,-0.061,36042.0,0.036042
33449947.0,0.072,0.007,1.019,0.183,0.0,-0.122,35984.0,0.035984
33486066.0,0.072,0.007,1.019,0.488,0.0,-0.122,36119.0,0.036119
33522616.0,0.074,0.007,1.018,0.122,0.0,-0.122,36550.0,0.03655
33558919.0,0.075,0.007,1.019,0.366,0.0,-0.061,36303.0,0.036303
33594835.0,0.073,0.007,1.02,0.183,0.0,-0.061,35916.0,0.035916
33631618.0,0.071,0.006,1.02,0.122,0.0,-0.061,36783.0,0.036783
33667970.0,0.071,0.008,1.019,0.549,0.0,-0.122,36352.0,0.036352
33703891.0,0.074,0.008,1.019,0.244,0.0,-0.061,35921.0,0.035921
33740832.0,0.077,0.009,1.018,0.183,0.122,-0.061,36941.0,0.036941
33776752.0,0.071,0.006,1.019,0.183,0.061,0.0,35920.0,0.03592
33812927.0,0.069,0.004,1.02,0.244,0.122,-0.061,36175.0,0.036175
33848914.0,0.069,0.004,1.02,0.488,0.061,-0.061,35987.0,0.035987
33884768.0,0.071,0.007,1.019,0.122,0.122,-0.061,35854.0,0.035854
33920888.0,0.073,0.007,1.019,0.244,-0.061,-0.122,36120.0,0.03612
33957772.0,0.074,0.007,1.02,0.183,-0.061,-0.061,36884.0,0.036884
33994456.0,0.072,0.007,1.018,0.305,0.0,-0.061,36684.0,0.036684
34030650.0,0.072,0.01,1.019,0.366,0.061,-0.061,36194.0,0.036194
34066742.0,0.072,0.009,1.019,0.671,0.122,-0.122,36092.0,0.036092
34102676.0,0.073,0.008,1.02,0.244,0.122,-0.061,35934.0,0.035934
34138680.0,0.074,0.007,1.02,0.427,0.244,-0.122,36004.0,0.036004
34174781.0,0.074,0.006,1.017,0.488,0.183,0.0,36101.0,0.036101
34210769.0,0.072,0.006,1.018,-0.061,0.122,-0.061,35988.0,0.035988
34247623.0,0.07,0.005,1.019,0.427,0.122,-0.061,36854.0,0.036854
34283530.0,0.071,0.007,1.019,0.244,0.122,-0.061,35907.0,0.035907
34319604.0,0.073,0.006,1.019,0.122,0.061,-0.061,36074.0,0.036074
34355708.0,0.074,0.006,1.019,0.183,0.0,0.0,36104.0,0.036104
34391675.0,0.073,0.006,1.019,0.305,0.061,-0.061,35967.0,0.035967
34427528.0,0.072,0.007,1.019,0.244,0.061,-0.061,35853.0,0.035853
34462519.0,0.072,0.008,1.019,0.244,0.0,-0.122,34991.0,0.034991
34498596.0,0.072,0.007,1.019,0.183,-0.061,-0.122,36077.0,0.036077
34535639.0,0.072,0.006,1.019,0.244,-0.061,-0.061,37043.0,0.037043
34572457.0,0.073,0.006,1.019,0.305,0.0,-0.122,36818.0,0.036818
34608444.0,0.074,0.007,1.019,0.305,0.0,-0.061,35987.0,0.035987
34644395.0,0.074,0.008,1.019,0.244,-0.061,-0.061,35951.0,0.035951
34681374.0,0.073,0.007,1.019,0.305,-0.061,-0.122,36979.0,0.036979
34718530.0,0.072,0.007,1.02,0.122,0.0,-0.061,37156.0,0.037156
34754500.0,0.071,0.004,1.02,0.427,-0.061,-0.061,35970.0,0.03597
34791304.0,0.073,0.006,1.019,0.366,0.0,-0.061,36804.0,0.036804
34827307.0,0.074,0.007,1.019,0.244,-0.122,-0.061,36003.0,0.036003
34864356.0,0.073,0.007,1.019,0.366,0.0,-0.061,37049.0,0.037049
34899277.0,0.074,0.007,1.019,0.244,0.0,-0.122,34921.0,0.034921
34934307.0,0.071,0.007,1.019,0.427,0.0,-0.122,35030.0,0.03503
34969243.0,0.069,0.007,1.019,0.122,-0.061,-0.061,34936.0,0.034936
35006273.0,0.071,0.007,1.019,0.427,-0.122,-0.122,37030.0,0.03703
35043406.0,0.072,0.007,1.019,0.305,0.0,-0.122,37133.0,0.037133
35079408.0,0.072,0.006,1.019,0.244,0.0,-0.122,36002.0,0.036002
35115240.0,0.075,0.006,1.02,0.488,-0.122,-0.183,35832.0,0.035832
35151235.0,0.077,0.009,1.019,0.305,-0.061,-0.122,35995.0,0.035995
35188209.0,0.073,0.011,1.018,0.305,0.0,-0.061,36974.0,0.036974
35224129.0,0.069,0.008,1.019,-0.122,0.0,-0.061,35920.0,0.03592
