timestamp,acc_x,acc_y,acc_z,gyro_x,gyro_y,gyro_z,dt,dt_sec
24828640.0,-0.001,0.0,-0.0,0.062,0.045,0.025,,
24865482.0,0.0,0.0,-0.0,0.062,0.045,0.025,36842.0,0.036842
24901973.0,0.001,0.0,0.0,0.001,0.107,0.025,36491.0,0.036491
24937588.0,0.001,0.001,0.0,0.001,0.045,0.025,35615.0,0.035615
24973469.0,-0.001,-0.0,0.001,0.001,-0.016,-0.036,35881.0,0.035881
25010521.0,0.0,0.0,-0.0,0.001,0.045,0.025,37052.0,0.037052
25046509.0,0.0,0.0,0.001,0.001,-0.016,-0.036,35988.0,0.035988
25084060.0,0.002,0.001,-0.0,-0.06,-0.016,-0.036,37551.0,0.037551
25121503.0,0.002,0.001,-0.001,0.062,-0.016,-0.036,37443.0,0.037443
25158442.0,-0.0,0.001,0.001,-0.06,0.045,0.025,36939.0,0.036939
25195646.0,-0.0,0.001,-0.0,0.001,-0.016,0.025,37204.0,0.037204
25232244.0,-0.0,-0.0,0.0,-0.06,-0.016,-0.036,36598.0,0.036598
25269236.0,-0.0,-0.002,0.0,0.001,-0.016,0.025,36992.0,0.036992
25306355.0,-0.0,-0.001,0.001,0.062,-0.016,0.025,37119.0,0.037119
25343306.0,0.001,0.001,0.0,0.123,-0.016,0.025,36951.0,0.036951
25379293.0,0.002,0.003,-0.0,-0.121,0.045,0.025,35987.0,0.035987
25416081.0,0.0,0.002,-0.0,-0.06,-0.016,-0.036,36788.0,0.036788
25453224.0,-0.0,0.0,0.0,-0.06,0.045,-0.036,37143.0,0.037143
25490207.0,-0.0,-0.001,0.0,0.062,0.045,0.025,36983.0,0.036983
25527037.0,-0.0,0.0,0.002,-0.244,-0.016,0.086,36830.0,0.03683
25564149.0,0.001,0.002,0.001,0.123,-0.26,-0.036,37112.0,0.037112
25600964.0,0.002,0.002,0.001,-0.305,-0.26,-0.097,36815.0,0.036815
25638097.0,-0.0,0.0,0.001,-0.305,0.045,-0.097,37133.0,0.037133
25675113.0,0.001,-0.001,0.003,0.184,0.045,0.086,37016.0,0.037016
25710921.0,0.001,-0.001,-0.002,-0.121,0.168,-0.036,35808.0,0.035808
25747956.0,0.001,0.001,0.0,0.062,0.29,0.086,37035.0,0.037035
25783885.0,-0.0,-0.0,-0.0,-0.06,0.168,0.025,35929.0,0.035929
25820848.0,0.0,-0.0,-0.0,0.123,0.168,0.086,36963.0,0.036963
25856957.0,-0.0,0.0,0.001,0.001,-0.016,-0.036,36109.0,0.036109
25893783.0,0.001,0.001,-0.001,0.062,0.107,0.025,36826.0,0.036826
25929798.0,0.0,-0.0,0.0,0.062,0.107,0.086,36015.0,0.036015
25965675.0,-0.0,0.0,-0.0,-0.06,0.107,0.086,35877.0,0.035877
26001676.0,-0.0,0.001,0.001,0.123,-0.077,-0.036,36001.0,0.036001
26038667.0,0.001,0.002,-0.0,0.001,-0.016,0.025,36991.0,0.036991
26074609.0,-0.0,0.001,-0.001,0.001,0.045,0.025,35942.0,0.035942
26110943.0,0.0,0.0,-0.0,-0.121,0.045,0.025,36334.0,0.036334
26147585.0,0.002,-0.001,0.0,0.001,-0.016,0.025,36642.0,0.036642
26184215.0,0.0,-0.001,0.001,0.001,-0.016,-0.036,36630.0,0.03663
26220692.0,0.0,0.0,-0.001,0.001,-0.016,0.025,36477.0,0.036477
26257107.0,-0.0,0.001,-0.0,0.001,0.045,0.025,36415.0,0.036415
26292535.0,-0.001,0.002,0.0,-0.06,0.045,0.025,35428.0,0.035428
26328466.0,0.001,-0.0,-0.001,-0.06,0.045,0.025,35931.0,0.035931
26365582.0,0.002,-0.001,-0.0,0.001,0.045,0.025,37116.0,0.037116
26402552.0,0.002,0.001,0.0,0.062,0.045,-0.036,36970.0,0.03697
26438354.0,0.001,0.001,0.0,0.001,-0.016,-0.036,35802.0,0.035802
26475519.0,-0.001,0.001,-0.001,-0.06,0.045,-0.036,37165.0,0.037165
26512325.0,-0.001,-0.001,0.0,0.062,-0.016,-0.036,36806.0,0.036806
26549332.0,-0.001,-0.0,0.001,-0.06,-0.016,-0.036,37007.0,0.037007
26586454.0,-0.001,0.001,-0.0,0.062,-0.016,0.025,37122.0,0.037122
26623417.0,-0.001,0.001,-0.0,-0.06,-0.016,0.025,36963.0,0.036963
26660269.0,0.001,0.001,0.0,-0.06,0.045,0.025,36852.0,0.036852
26696379.0,0.001,-0.0,-0.0,0.001,-0.016,0.025,36110.0,0.03611
26733336.0,-0.0,0.0,0.0,0.001,0.045,0.025,36957.0,0.036957
26769133.0,0.0,-0.001,0.0,0.001,0.045,0.025,35797.0,0.035797
26805302.0,0.0,0.001,-0.0,-0.06,-0.016,0.025,36169.0,0.036169
26842078.0,-0.0,0.001,0.0,0.062,-0.016,0.025,36776.0,0.036776
26879065.0,0.001,0.002,-0.0,-0.06,0.045,-0.036,36987.0,0.036987
26916205.0,0.001,0.0,-0.0,-0.06,0.045,0.025,37140.0,0.03714
26952448.0,0.001,-0.001,0.0,0.001,0.045,-0.036,36243.0,0.036243
26989021.0,0.0,-0.0,0.0,0.001,-0.016,-0.036,36573.0,0.036573
27025949.0,-0.001,0.0,-0.0,0.001,0.045,-0.036,36928.0,0.036928
27062989.0,-0.001,0.001,-0.001,0.062,-0.016,-0.036,37040.0,0.03704
27099924.0,-0.001,0.002,0.0,0.001,-0.016,0.025,36935.0,0.036935
27137028.0,0.0,0.001,0.0,-0.06,-0.016,0.025,37104.0,0.037104
27173838.0,0.001,-0.001,-0.0,0.001,-0.016,-0.036,36810.0,0.03681
27210839.0,0.001,0.001,0.0,-0.06,-0.016,-0.036,37001.0,0.037001
27247767.0,-0.0,0.0,0.001,0.062,-0.016,0.025,36928.0,0.036928
27284819.0,-0.0,0.0,0.001,0.001,-0.016,0.025,37052.0,0.037052
27321777.0,-0.0,0.001,-0.001,0.001,0.045,0.025,36958.0,0.036958
27358705.0,0.001,0.0,-0.0,-0.06,0.045,0.025,36928.0,0.036928
27396883.0,0.001,0.0,-0.0,0.062,-0.016,0.025,38178.0,0.038178
27433653.0,-0.001,0.001,-0.001,0.001,-0.016,0.025,36770.0,0.03677
27470669.0,0.001,-0.0,0.001,0.123,-0.077,-0.036,37016.0,0.037016
27507877.0,0.002,0.001,-0.001,-0.182,-0.016,0.025,37208.0,0.037208
27544735.0,0.0,-0.0,0.001,0.123,-0.138,-0.036,36858.0,0.036858
27581721.0,-0.001,-0.002,0.0,-0.305,0.107,-0.036,36986.0,0.036986
27618782.0,-0.001,0.0,-0.0,0.123,0.045,0.025,37061.0,0.037061
27655680.0,-0.001,0.0,-0.0,-0.06,0.045,0.025,36898.0,0.036898
27692681.0,-0.001,0.0,-0.0,0.001,0.045,0.025,37001.0,0.037001
27729524.0,-0.001,0.001,0.0,0.123,0.045,0.025,36843.0,0.036843
27765475.0,0.0,0.001,0.0,0.001,0.107,0.086,35951.0,0.035951
27801458.0,-0.0,0.0,0.0,0.123,0.045,0.025,35983.0,0.035983
27838447.0,0.001,0.0,-0.0,0.062,0.045,0.025,36989.0,0.036989
27874548.0,0.0,0.001,0.0,0.001,0.107,0.025,36101.0,0.036101
27910368.0,-0.0,0.001,0.0,0.001,0.107,0.025,35820.0,0.03582
27946492.0,0.0,0.001,-0.0,0.062,0.045,0.086,36124.0,0.036124
27982487.0,0.001,-0.001,0.0,0.062,0.045,0.025,35995.0,0.035995
28018292.0,0.001,-0.0,-0.001,0.001,-15.518,0.025,35805.0,0.035805
28055405.0,-0.0,0.0,-0.0,0.062,0.045,0.025,37113.0,0.037113
28092377.0,-0.001,0.0,0.0,0.001,-0.016,0.025,36972.0,0.036972
28129373.0,-0.001,0.0,-0.001,-0.06,-0.016,0.025,36996.0,0.036996
28166211.0,0.0,0.0,0.0,0.001,-0.077,0.025,36838.0,0.036838
28202150.0,0.0,-0.0,0.0,-0.121,-0.016,0.025,35939.0,0.035939
28238116.0,-0.0,0.001,0.0,0.001,-0.016,-0.036,35966.0,0.035966
28274088.0,-0.002,-0.0,0.001,-0.06,-0.077,0.025,35972.0,0.035972
28311084.0,-0.001,0.001,0.0,0.001,-0.016,-0.036,36996.0,0.036996
28348227.0,0.001,0.001,0.0,0.123,-0.016,0.025,37143.0,0.037143
28384024.0,0.003,0.0,-0.001,-0.06,-0.016,0.025,35797.0,0.035797
28421059.0,0.002,0.0,0.0,-0.06,0.045,0.025,37035.0,0.037035
28457143.0,-0.001,-0.001,-0.001,0.001,0.045,-0.036,36084.0,0.036084
28494040.0,-0.003,0.002,-0.001,0.062,-0.016,0.025,36897.0,0.036897
28530928.0,-0.001,0.0,0.0,0.001,-0.016,0.025,36888.0,0.036888
28568094.0,-0.0,0.0,0.0,-0.121,-0.016,0.025,37166.0,0.037166
28605101.0,-0.001,-0.0,-0.0,0.062,-0.016,0.025,37007.0,0.037007
28641880.0,-0.0,0.0,0.0,0.001,-0.016,0.025,36779.0,0.036779
28678873.0,0.003,0.001,-0.0,-0.06,0.045,0.025,36993.0,0.036993
28716017.0,0.003,-0.0,0.0,0.062,-0.077,0.025,37144.0,0.037144
28752913.0,0.003,0.001,-0.001,0.001,0.045,0.025,36896.0,0.036896
28788814.0,-0.0,0.0,-0.0,0.062,-0.016,-0.036,35901.0,0.035901
28825869.0,-0.0,0.0,-0.0,-0.06,-0.016,-0.036,37055.0,0.037055
28862910.0,0.0,0.0,-0.001,-0.06,-0.016,0.025,37041.0,0.037041
28899363.0,0.002,-0.0,0.0,-0.06,-0.016,-0.036,36453.0,0.036453
28935734.0,0.003,0.0,-0.0,-0.06,-0.016,-0.036,36371.0,0.036371
28972830.0,0.002,-0.0,0.0,0.001,-0.016,-0.036,37096.0,0.037096
29009736.0,-0.001,0.001,0.0,0.001,0.045,-0.036,36906.0,0.036906
29046783.0,-0.002,0.001,-0.001,0.001,0.045,-0.036,37047.0,0.037047
29083724.0,-0.0,-0.001,0.0,0.001,-0.016,-0.036,36941.0,0.036941
29120685.0,0.001,-0.001,0.0,0.001,0.045,-0.036,36961.0,0.036961
29157700.0,0.001,0.0,0.0,0.062,0.045,0.025,37015.0,0.037015
29197644.0,0.0,0.0,0.001,0.062,-0.016,-0.036,39944.0,0.039944
29235533.0,-0.001,0.002,-0.001,-0.06,0.045,-0.036,37889.0,0.037889
29271336.0,-0.0,0.0,0.001,-0.06,-0.016,0.025,35803.0,0.035803
29308460.0,0.001,-0.0,0.0,0.001,-0.016,-0.036,37124.0,0.037124
29345438.0,0.001,0.0,0.0,-0.06,-0.016,-0.036,36978.0,0.036978
29382565.0,0.0,0.001,0.0,-0.06,-0.016,0.025,37127.0,0.037127
29419922.0,-0.0,0.0,0.0,-0.06,-0.016,0.025,37357.0,0.037357
29456346.0,0.0,0.001,0.0,0.001,-0.016,-0.036,36424.0,0.036424
29493356.0,0.001,0.001,-0.0,0.001,-0.016,0.025,37010.0,0.03701
29529479.0,0.001,0.001,0.0,0.001,0.045,-0.036,36123.0,0.036123
29565438.0,-0.0,0.0,-0.0,0.001,0.045,-0.036,35959.0,0.035959
29602323.0,-0.001,-0.0,0.0,0.001,-0.016,0.025,36885.0,0.036885
29639397.0,-0.0,-0.0,-0.001,0.001,-0.016,0.025,37074.0,0.037074
29676249.0,0.0,0.001,0.0,0.001,-0.016,0.025,36852.0,0.036852
29712363.0,0.001,0.001,0.001,0.001,-0.016,0.025,36114.0,0.036114
29748324.0,0.001,0.0,-0.0,0.001,-0.016,0.025,35961.0,0.035961
29785139.0,0.0,-0.0,0.0,0.062,-0.016,0.025,36815.0,0.036815
29821907.0,-0.001,0.001,0.0,0.001,-0.016,-0.036,36768.0,0.036768
29859259.0,-0.0,0.001,-0.0,0.001,-0.016,0.025,37352.0,0.037352
29896105.0,0.001,0.0,-0.0,0.001,-0.016,-0.036,36846.0,0.036846
29933090.0,0.002,-0.0,-0.0,0.001,-0.016,0.025,36985.0,0.036985
29970187.0,0.0,0.0,0.0,-0.121,0.045,-0.036,37097.0,0.037097
30007186.0,-0.002,0.0,0.0,0.001,0.045,0.025,36999.0,0.036999
30043169.0,-0.002,-0.001,0.0,0.123,-0.016,0.025,35983.0,0.035983
30079993.0,0.003,-0.001,0.0,0.123,-0.016,0.025,36824.0,0.036824
30116499.0,0.004,0.002,-0.001,0.062,0.107,-0.036,36506.0,0.036506
30152962.0,0.001,0.001,-0.001,0.001,0.168,0.025,36463.0,0.036463
30189033.0,-0.003,-0.0,0.001,-0.121,0.168,0.025,36071.0,0.036071
30224910.0,-0.003,-0.001,0.001,0.123,-0.016,0.025,35877.0,0.035877
30261889.0,-0.001,-0.0,0.0,0.062,-0.016,-0.036,36979.0,0.036979
30298898.0,0.0,0.0,-0.0,0.184,0.045,0.025,37009.0,0.037009
30334802.0,0.002,0.001,0.0,0.001,-0.016,0.025,35904.0,0.035904
30370760.0,0.0,0.001,-0.001,-0.182,-0.016,0.025,35958.0,0.035958
30406756.0,-0.0,-0.0,0.001,-0.121,-0.016,-0.036,35996.0,0.035996
30443731.0,-0.001,-0.001,0.001,-0.06,-0.016,-0.036,36975.0,0.036975
30480724.0,-0.001,0.0,0.001,0.123,-0.016,0.025,36993.0,0.036993
30516721.0,-0.0,0.002,-0.001,-0.121,-0.016,-0.036,35997.0,0.035997
30553745.0,0.0,0.001,0.001,0.001,-0.016,0.025,37024.0,0.037024
30588667.0,0.001,-0.001,0.001,-0.182,-0.016,0.025,34922.0,0.034922
30625644.0,0.0,-0.0,0.0,-0.06,-0.077,0.025,36977.0,0.036977
30662606.0,-0.0,0.001,0.001,0.001,-0.016,0.025,36962.0,0.036962
30698714.0,-0.002,0.002,-0.001,0.062,-0.077,-0.036,36108.0,0.036108
30734558.0,-0.0,0.0,0.002,-0.06,-0.077,0.025,35844.0,0.035844
30771208.0,0.002,0.0,0.001,-0.121,0.045,0.025,36650.0,0.03665
30807494.0,0.002,-0.0,0.0,0.123,-0.077,0.025,36286.0,0.036286
30844633.0,-0.003,0.002,0.001,-0.61,0.045,0.086,37139.0,0.037139
30881454.0,-0.001,0.004,-0.001,0.611,-0.565,-0.097,36821.0,0.036821
30918471.0,0.0,0.001,0.003,-0.976,0.045,0.025,37017.0,0.037017
30954390.0,0.005,-0.0,-0.001,0.367,-0.016,-0.036,35919.0,0.035919
30991340.0,-0.001,-0.004,0.002,0.062,0.229,0.086,36950.0,0.03695
31028354.0,-0.005,0.001,-0.002,0.001,0.29,0.086,37014.0,0.037014
31064496.0,-0.001,0.002,-0.0,0.489,-0.016,0.086,36142.0,0.036142
31101690.0,-0.002,0.0,0.0,-0.366,-15.335,0.025,37194.0,0.037194
31138445.0,0.002,0.002,-0.003,0.245,0.045,0.086,36755.0,0.036755
31174278.0,0.002,-0.002,0.002,0.123,-0.016,0.025,35833.0,0.035833
31210190.0,0.002,0.002,-0.001,-0.244,0.107,0.086,35912.0,0.035912
31247201.0,-0.001,-0.001,0.001,0.245,-0.138,-0.036,37011.0,0.037011
31284166.0,-0.003,0.001,0.001,-0.121,-0.016,0.025,36965.0,0.036965
31320191.0,-0.002,0.002,-0.001,0.184,-0.077,0.025,36025.0,0.036025
31357287.0,-0.001,0.0,0.002,-0.121,0.045,0.025,37096.0,0.037096
31394100.0,0.004,0.0,-0.001,-0.06,-0.016,0.025,36813.0,0.036813
31431252.0,0.005,-0.001,0.0,0.123,-0.077,0.025,37152.0,0.037152
31468087.0,0.002,0.0,0.001,-0.121,0.045,0.025,36835.0,0.036835
31504196.0,-0.0,0.001,-0.001,0.001,-0.016,-0.036,36109.0,0.036109
31540989.0,-0.002,0.001,0.001,-0.121,-0.016,-0.036,36793.0,0.036793
31577981.0,-0.001,0.001,-0.001,0.062,-0.077,0.025,36992.0,0.036992
31615704.0,-0.0,-0.001,0.001,0.062,-0.077,0.025,37723.0,0.037723
31652928.0,0.002,0.001,0.0,-0.121,0.045,-0.036,37224.0,0.037224
31688909.0,0.002,0.001,-0.0,0.062,0.045,0.025,35981.0,0.035981
31724893.0,0.001,0.0,0.0,-0.06,0.045,-0.036,35984.0,0.035984
31759849.0,0.001,-0.001,-0.001,0.001,-0.016,-0.036,34956.0,0.034956
31795829.0,0.0,-0.001,0.001,0.001,0.045,-0.036,35980.0,0.03598
31830829.0,-0.002,0.001,0.0,-0.121,0.045,-0.036,35000.0,0.035
31866793.0,-0.002,0.001,-0.0,0.123,-0.016,0.025,35964.0,0.035964
31903797.0,-0.001,0.001,0.001,-0.121,0.045,0.025,37004.0,0.037004
31938846.0,0.001,0.001,-0.0,0.062,-0.016,0.025,35049.0,0.035049
31975899.0,0.003,-0.002,0.001,-0.06,0.045,-0.036,37053.0,0.037053
32012735.0,0.001,-0.0,-0.001,0.001,0.045,-0.036,36836.0,0.036836
32048761.0,-0.0,0.0,0.001,0.001,-0.016,-0.036,36026.0,0.036026
32085698.0,-0.001,0.001,-0.001,-0.121,0.045,0.025,36937.0,0.036937
32122630.0,-0.001,-0.0,0.001,0.062,-0.016,-0.036,36932.0,0.036932
32159713.0,-0.001,-0.0,0.0,-0.182,0.107,-0.036,37083.0,0.037083
32196799.0,0.0,-0.0,0.0,0.123,-0.016,-0.036,37086.0,0.037086
32233618.0,0.001,0.001,0.001,-0.06,0.045,0.025,36819.0,0.036819
32269572.0,0.002,0.002,-0.001,0.062,-0.016,0.025,35954.0,0.035954
32306522.0,0.005,0.001,0.0,0.062,-0.016,-0.036,36950.0,0.03695
32343548.0,0.006,0.0,-0.002,-0.06,0.045,-0.036,37026.0,0.037026
32380649.0,-0.003,-0.002,0.002,-0.366,0.168,-0.036,37101.0,0.037101
32417633.0,-0.009,-0.001,-0.001,-0.121,0.045,-0.036,36984.0,0.036984
32454622.0,-0.009,-0.003,0.002,0.245,-0.077,0.025,36989.0,0.036989
32491443.0,0.002,0.002,-0.001,-0.06,-0.077,0.025,36821.0,0.036821
32528552.0,0.002,0.0,-0.001,-0.366,-0.016,0.025,37109.0,0.037109
32565403.0,0.009,0.001,-0.002,0.367,-0.016,-0.036,36851.0,0.036851
32602330.0,-0.001,-0.002,0.002,-0.793,0.229,0.025,36927.0,0.036927
32639334.0,-0.003,-0.001,0.001,0.672,-0.138,-0.036,37004.0,0.037004
32676467.0,-0.003,-0.001,0.001,-0.427,0.168,0.025,37133.0,0.037133
32712920.0,-0.0,0.002,-0.002,0.489,-0.138,0.025,36453.0,0.036453
32749242.0,-0.0,-0.0,0.002,0.123,-0.016,0.086,36322.0,0.036322
32786214.0,0.002,0.002,-0.001,-0.244,0.107,0.147,36972.0,0.036972
32823191.0,0.003,-0.001,0.001,0.306,-0.077,0.025,36977.0,0.036977
32860244.0,0.002,-0.001,-0.0,-0.488,0.168,-0.036,37053.0,0.037053
32897343.0,0.001,0.0,-0.002,0.123,-0.138,-0.097,37099.0,0.037099
32934301.0,-0.001,-0.001,0.001,-0.366,0.168,0.025,36958.0,0.036958
32971148.0,-0.007,0.003,0.001,0.367,-0.016,0.025,36847.0,0.036847
33006259.0,-0.003,0.004,0.001,1.038,-0.565,-0.036,35111.0,0.035111
33043246.0,0.003,0.004,0.001,-0.732,-0.443,-0.097,36987.0,0.036987
33080042.0,0.009,0.0,-0.002,-0.182,-0.443,-0.219,36796.0,0.036796
33117173.0,0.006,-0.002,0.004,-0.61,-0.077,-0.097,37131.0,0.037131
33154162.0,0.0,0.001,0.001,0.062,-0.26,-0.036,36989.0,0.036989
33191105.0,-0.004,0.001,0.001,0.001,-0.382,-0.158,36943.0,0.036943
33227911.0,-0.005,0.001,-0.001,-0.305,-0.138,-0.036,36806.0,0.036806
33264397.0,0.001,0.0,0.0,0.245,-0.016,0.025,36486.0,0.036486
33300040.0,0.006,-0.002,0.0,-0.06,0.045,0.025,35643.0,0.035643
33336910.0,0.004,-0.0,-0.001,0.001,0.168,0.025,36870.0,0.03687
33374021.0,0.002,0.001,-0.0,0.062,0.229,0.025,37111.0,0.037111
33409850.0,-0.002,0.002,-0.0,-0.121,0.107,0.025,35829.0,0.035829
33447006.0,-0.004,0.0,0.0,0.123,0.045,-0.036,37156.0,0.037156
33483831.0,-0.001,-0.002,0.001,0.123,0.045,0.025,36825.0,0.036825
33519939.0,0.003,-0.0,0.0,0.123,0.045,0.025,36108.0,0.036108
33555798.0,0.005,0.0,-0.001,0.062,0.045,-0.036,35859.0,0.035859
33592716.0,0.002,0.002,-0.001,-0.121,0.107,0.025,36918.0,0.036918
33629879.0,-0.002,0.002,0.001,0.062,-0.016,-0.036,37163.0,0.037163
33665737.0,-0.002,-0.0,0.001,-0.121,0.045,0.025,35858.0,0.035858
33702735.0,-0.001,-0.0,-0.001,0.062,-0.016,0.025,36998.0,0.036998
33739619.0,0.0,0.0,0.0,0.123,-0.077,0.025,36884.0,0.036884
33775595.0,0.002,0.002,-0.0,0.001,0.045,0.025,35976.0,0.035976
33812285.0,0.002,0.002,-0.0,0.001,0.045,0.025,36690.0,0.03669
33848565.0,-0.001,0.001,0.0,-0.182,0.045,-0.036,36280.0,0.03628
33885537.0,-0.001,-0.001,-0.0,0.062,-0.016,-0.036,36972.0,0.036972
33922690.0,-0.001,-0.0,0.0,0.001,-0.016,0.025,37153.0,0.037153
33959511.0,0.0,0.0,0.0,0.062,-0.016,0.025,36821.0,0.036821
33995442.0,0.004,0.001,-0.002,0.184,0.045,-0.036,35931.0,0.035931
34032614.0,0.002,-0.0,-0.001,15.259,0.107,0.025,37172.0,0.037172
34069596.0,0.002,-0.002,-0.001,-0.06,-0.016,0.025,36982.0,0.036982
34106581.0,0.002,-0.002,-0.0,-0.549,0.351,0.025,36985.0,0.036985
34143565.0,-0.001,0.0,-0.004,0.123,0.229,0.086,36984.0,0.036984
34180342.0,-0.004,-0.002,0.003,0.489,0.229,0.147,36777.0,0.036777
34216485.0,-0.0,0.001,-0.002,0.184,0.045,0.086,36143.0,0.036143
34253457.0,0.0,-0.001,-0.0,0.062,-0.016,-0.036,36972.0,0.036972
34290270.0,0.0,0.0,-0.001,-0.06,-0.077,0.025,36813.0,0.036813
34327349.0,-0.001,0.003,-0.0,0.184,0.168,0.086,37079.0,0.037079
34364225.0,-0.001,0.001,0.001,-0.06,-0.016,0.025,36876.0,0.036876
34401211.0,0.001,0.001,-0.001,-0.182,-0.077,-0.036,36986.0,0.036986
34438235.0,0.002,-0.001,0.001,0.001,-0.077,0.025,37024.0,0.037024
34475365.0,0.001,0.001,0.0,0.001,-0.138,-0.036,37130.0,0.03713
34511899.0,-0.001,0.001,0.001,-0.06,-0.077,-0.097,36534.0,0.036534
34549299.0,-0.001,0.0,-0.0,-0.06,-0.016,0.025,37400.0,0.0374
34586274.0,0.001,-0.0,-0.0,-0.182,0.045,0.025,36975.0,0.036975
34623247.0,0.002,-0.001,0.001,0.001,-0.077,-0.036,36973.0,0.036973
34660247.0,0.001,-0.0,0.001,-0.06,-0.016,0.025,37000.0,0.037
34697068.0,-0.0,0.0,0.0,0.062,0.045,0.025,36821.0,0.036821
34732994.0,-0.001,0.0,0.001,0.001,0.045,0.025,35926.0,0.035926
34769196.0,0.001,0.001,-0.001,0.001,0.045,0.025,36202.0,0.036202
34804948.0,0.002,-0.0,0.001,0.062,0.045,0.025,35752.0,0.035752
