timestamp,seq,acc_x,acc_y,acc_z,gyro_x,gyro_y,gyro_z,dt,dt_sec
291089390.0,7358.0,0.21,-0.97,-0.19,2.56,2.01,1.53,,
291126669.0,7359.0,0.19,-0.98,-0.16,0.55,1.34,0.06,37279.0,0.037279
291164597.0,7360.0,0.2,-0.94,-0.18,-2.14,-3.54,-1.28,37928.0,0.037928
291202540.0,7361.0,0.22,-0.97,-0.2,1.1,1.89,0.31,37943.0,0.037943
291239567.0,7362.0,0.21,-0.97,-0.17,2.44,3.97,1.34,37027.0,0.037027
291276522.0,7363.0,0.19,-0.98,-0.16,-0.49,-2.08,-0.18,36955.0,0.036955
291314507.0,7364.0,0.21,-0.97,-0.19,-2.38,-2.81,-1.95,37985.0,0.037985
291352472.0,7365.0,0.21,-0.96,-0.2,2.01,1.71,1.1,37965.0,0.037965
291389604.0,7366.0,0.2,-0.98,-0.16,2.2,3.97,0.92,37132.0,0.037132
291427444.0,7367.0,0.2,-0.97,-0.16,-1.34,-3.97,-0.85,37840.0,0.03784
291465420.0,7368.0,0.21,-0.97,-0.2,-1.83,-1.4,-1.46,37976.0,0.037976
291503376.0,7369.0,0.21,-0.97,-0.19,3.3,3.36,1.89,37956.0,0.037956
291540361.0,7370.0,0.2,-0.98,-0.15,0.98,1.4,-0.24,36985.0,0.036985
291578318.0,7371.0,0.21,-0.96,-0.17,-4.94,-5.49,-2.32,37957.0,0.037957
291616321.0,7372.0,0.22,-0.97,-0.22,1.46,-0.24,0.43,38003.0,0.038003
291654322.0,7373.0,0.2,-0.96,-0.17,2.87,5.62,1.22,38001.0,0.038001
291691299.0,7374.0,0.19,-0.98,-0.15,-0.31,-2.99,-0.31,36977.0,0.036977
291729240.0,7375.0,0.22,-0.95,-0.2,-3.54,-3.36,-2.69,37941.0,0.037941
291767219.0,7376.0,0.21,-0.97,-0.21,4.82,2.69,3.23,37979.0,0.037979
291804181.0,7377.0,0.2,-0.98,-0.14,0.67,4.52,-0.73,36962.0,0.036962
291842172.0,7378.0,0.19,-0.97,-0.15,-2.62,-8.73,-0.79,37991.0,0.037991
291880305.0,7379.0,0.22,-0.97,-0.22,-0.55,3.3,-1.46,38133.0,0.038133
291918128.0,7380.0,0.21,-0.96,-0.18,4.64,1.71,3.54,37823.0,0.037823
291955231.0,7381.0,0.19,-0.99,-0.16,-0.73,0.79,-1.16,37103.0,0.037103
291993073.0,7382.0,0.21,-0.96,-0.19,-2.93,-5.68,-1.71,37842.0,0.037842
292031043.0,7383.0,0.22,-0.97,-0.22,2.69,3.72,1.28,37970.0,0.03797
292068020.0,7384.0,0.2,-0.97,-0.14,1.89,3.23,0.73,36977.0,0.036977
292105003.0,7385.0,0.2,-0.98,-0.18,-2.75,-5.98,-1.59,36983.0,0.036983
292142926.0,7386.0,0.22,-0.96,-0.21,-0.49,0.73,-0.79,37923.0,0.037923
292180937.0,7387.0,0.2,-0.97,-0.18,4.21,3.48,2.62,38011.0,0.038011
292218960.0,7388.0,0.19,-0.97,-0.15,-1.28,-0.61,-1.34,38023.0,0.038023
292256861.0,7389.0,0.21,-0.97,-0.2,-1.83,-4.64,-0.98,37901.0,0.037901
292294882.0,7390.0,0.21,-0.97,-0.2,1.95,4.03,0.61,38021.0,0.038021
292331837.0,7391.0,0.2,-0.97,-0.16,1.59,0.55,0.92,36955.0,0.036955
292368968.0,7392.0,0.2,-0.97,-0.18,-2.38,-3.11,-1.71,37131.0,0.037131
292406794.0,7393.0,0.21,-0.96,-0.2,0.98,0.24,0.49,37826.0,0.037826
292443771.0,7394.0,0.2,-0.97,-0.17,2.01,2.93,0.79,36977.0,0.036977
292482056.0,7395.0,0.2,-0.97,-0.17,-0.67,-2.26,-0.55,38285.0,0.038285
292519707.0,7396.0,0.21,-0.97,-0.19,-0.92,-0.98,-0.85,37651.0,0.037651
292557695.0,7397.0,0.21,-0.97,-0.19,1.34,1.77,0.85,37988.0,0.037988
292594824.0,7398.0,0.2,-0.97,-0.17,0.79,0.43,0.24,37129.0,0.037129
292632646.0,7399.0,0.2,-0.97,-0.18,-0.85,-1.83,-0.73,37822.0,0.037822
292670789.0,7400.0,0.21,-0.97,-0.19,0.67,0.67,0.12,38143.0,0.038143
292708593.0,7401.0,0.2,-0.97,-0.17,1.04,1.1,0.37,37804.0,0.037804
292745709.0,7402.0,0.2,-0.97,-0.17,-0.31,-1.28,-0.37,37116.0,0.037116
292783603.0,7403.0,0.21,-0.97,-0.19,-0.31,-0.49,-0.49,37894.0,0.037894
292821638.0,7404.0,0.21,-0.97,-0.18,0.85,0.73,0.31,38035.0,0.038035
292859462.0,7405.0,0.2,-0.97,-0.18,0.43,0.24,0.0,37824.0,0.037824
292897610.0,7406.0,0.21,-0.97,-0.18,-0.06,-1.04,-0.24,38148.0,0.038148
292935511.0,7407.0,0.21,-0.97,-0.18,0.49,0.49,-0.06,37901.0,0.037901
292973379.0,7408.0,0.21,-0.97,-0.18,0.61,0.24,0.18,37868.0,0.037868
293010576.0,7409.0,0.2,-0.97,-0.18,0.0,-0.18,-0.24,37197.0,0.037197
293048335.0,7410.0,0.21,-0.97,-0.18,-0.06,-0.73,-0.24,37759.0,0.037759
293086348.0,7411.0,0.21,-0.97,-0.19,0.37,0.06,-0.06,38013.0,0.038013
293124333.0,7412.0,0.21,-0.97,-0.18,0.67,0.55,0.18,37985.0,0.037985
293161257.0,7413.0,0.2,-0.97,-0.18,0.31,-0.12,-0.06,36924.0,0.036924
293199266.0,7414.0,0.21,-0.97,-0.18,-0.06,-0.49,-0.31,38009.0,0.038009
293237343.0,7415.0,0.21,-0.97,-0.18,0.31,0.0,-0.06,38077.0,0.038077
293275226.0,7416.0,0.2,-0.97,-0.18,0.55,0.37,0.06,37883.0,0.037883
293312315.0,7417.0,0.2,-0.97,-0.18,-0.06,-0.49,-0.31,37089.0,0.037089
293350260.0,7418.0,0.21,-0.97,-0.18,0.12,-0.61,-0.12,37945.0,0.037945
293388164.0,7419.0,0.21,-0.97,-0.19,0.61,0.85,0.18,37904.0,0.037904
293426127.0,7420.0,0.2,-0.97,-0.17,0.92,0.67,0.24,37963.0,0.037963
293464089.0,7421.0,0.2,-0.97,-0.17,-0.37,-0.67,-0.43,37962.0,0.037962
293502192.0,7422.0,0.21,-0.97,-0.19,-0.24,-0.92,-0.37,38103.0,0.038103
293539440.0,7423.0,0.21,-0.97,-0.19,1.16,1.22,0.37,37248.0,0.037248
293577027.0,7424.0,0.2,-0.97,-0.17,0.12,0.0,-0.18,37587.0,0.037587
293615000.0,7425.0,0.21,-0.97,-0.18,-0.67,-1.46,-0.61,37973.0,0.037973
293652982.0,7426.0,0.21,-0.97,-0.19,1.04,0.79,0.43,37982.0,0.037982
293689969.0,7427.0,0.2,-0.97,-0.17,1.1,1.16,0.43,36987.0,0.036987
293727946.0,7428.0,0.2,-0.97,-0.17,-1.16,-1.89,-1.04,37977.0,0.037977
293765926.0,7429.0,0.21,-0.97,-0.2,0.06,-0.61,-0.12,37980.0,0.03798
293803899.0,7430.0,0.2,-0.97,-0.18,1.77,2.5,0.73,37973.0,0.037973
293840902.0,7431.0,0.2,-0.97,-0.17,-0.31,-1.34,-0.37,37003.0,0.037003
293878844.0,7432.0,0.21,-0.97,-0.19,-1.04,-1.65,-0.92,37942.0,0.037942
293916840.0,7433.0,0.21,-0.97,-0.19,1.95,1.95,0.92,37996.0,0.037996
293953811.0,7434.0,0.2,-0.97,-0.16,0.37,0.67,-0.06,36971.0,0.036971
293991787.0,7435.0,0.21,-0.97,-0.18,-1.4,-3.11,-0.92,37976.0,0.037976
294029763.0,7436.0,0.21,-0.97,-0.2,0.73,1.46,0.06,37976.0,0.037976
294066742.0,7437.0,0.21,-0.97,-0.17,1.77,1.53,0.85,36979.0,0.036979
294103769.0,7438.0,0.2,-0.97,-0.17,-0.37,-1.16,-0.49,37027.0,0.037027
294141702.0,7439.0,0.21,-0.97,-0.19,-0.67,-1.46,-0.61,37933.0,0.037933
294179678.0,7440.0,0.21,-0.97,-0.19,1.4,1.53,0.55,37976.0,0.037976
294216639.0,7441.0,0.2,-0.97,-0.17,0.31,0.24,-0.12,36961.0,0.036961
294254633.0,7442.0,0.21,-0.97,-0.18,-0.67,-1.77,-0.61,37994.0,0.037994
294292627.0,7443.0,0.21,-0.97,-0.19,0.79,1.04,0.18,37994.0,0.037994
294330602.0,7444.0,0.2,-0.97,-0.17,0.92,0.43,0.43,37975.0,0.037975
294367726.0,7445.0,0.2,-0.97,-0.18,-0.73,-1.22,-0.85,37124.0,0.037124
294405548.0,7446.0,0.21,-0.97,-0.19,0.43,0.0,0.12,37822.0,0.037822
294442554.0,7447.0,0.2,-0.97,-0.18,1.22,1.53,0.43,37006.0,0.037006
294479492.0,7448.0,0.2,-0.97,-0.17,-0.79,-1.46,-0.73,36938.0,0.036938
294517484.0,7449.0,0.21,-0.97,-0.19,-0.06,-0.79,-0.18,37992.0,0.037992
294555495.0,7450.0,0.21,-0.97,-0.18,1.53,1.95,0.49,38011.0,0.038011
294592435.0,7451.0,0.2,-0.97,-0.17,0.24,-0.61,0.0,36940.0,0.03694
294630413.0,7452.0,0.21,-0.97,-0.18,-1.04,-1.34,-0.98,37978.0,0.037978
294668400.0,7453.0,0.21,-0.97,-0.19,0.98,0.55,0.49,37987.0,0.037987
294705372.0,7454.0,0.2,-0.97,-0.18,1.16,1.77,0.37,36972.0,0.036972
294742346.0,7455.0,0.2,-0.97,-0.17,-0.49,-1.71,-0.43,36974.0,0.036974
294780346.0,7456.0,0.21,-0.97,-0.19,-0.12,-0.06,-0.37,38000.0,0.038
294818285.0,7457.0,0.21,-0.97,-0.18,1.22,1.1,0.43,37939.0,0.037939
294855274.0,7458.0,0.2,-0.97,-0.18,0.12,-0.67,-0.12,36989.0,0.036989
294893246.0,7459.0,0.21,-0.97,-0.19,-0.37,-0.67,-0.49,37972.0,0.037972
294931209.0,7460.0,0.21,-0.97,-0.18,0.98,0.73,0.31,37963.0,0.037963
294968204.0,7461.0,0.2,-0.97,-0.17,0.24,0.18,-0.12,36995.0,0.036995
295006173.0,7462.0,0.2,-0.97,-0.18,-0.24,-1.28,-0.24,37969.0,0.037969
295044150.0,7463.0,0.21,-0.97,-0.19,0.37,0.61,-0.24,37977.0,0.037977
295082141.0,7464.0,0.2,-0.97,-0.18,0.92,0.37,0.43,37991.0,0.037991
295119115.0,7465.0,0.2,-0.97,-0.18,-0.18,-0.12,-0.49,36974.0,0.036974
295157089.0,7466.0,0.21,-0.97,-0.19,-0.24,-1.34,-0.18,37974.0,0.037974
295195063.0,7467.0,0.21,-0.97,-0.19,0.73,1.22,0.0,37974.0,0.037974
295232046.0,7468.0,0.2,-0.97,-0.17,0.92,0.18,0.43,36983.0,0.036983
295269025.0,7469.0,0.2,-0.97,-0.18,-0.49,-1.16,-0.85,36979.0,0.036979
295306986.0,7470.0,0.21,-0.97,-0.19,-0.06,-0.92,0.24,37961.0,0.037961
295344945.0,7471.0,0.21,-0.97,-0.18,1.4,2.01,0.43,37959.0,0.037959
295381922.0,7472.0,0.2,-0.97,-0.17,-0.18,-0.73,-0.24,36977.0,0.036977
295419920.0,7473.0,0.21,-0.97,-0.19,-0.43,-1.65,-0.37,37998.0,0.037998
295457901.0,7474.0,0.21,-0.97,-0.18,1.04,1.89,0.24,37981.0,0.037981
295494884.0,7475.0,0.2,-0.97,-0.17,0.43,-0.37,0.06,36983.0,0.036983
295532892.0,7476.0,0.21,-0.97,-0.18,-0.98,-1.22,-0.92,38008.0,0.038008
295570826.0,7477.0,0.21,-0.97,-0.19,1.28,0.49,0.67,37934.0,0.037934
295607836.0,7478.0,0.2,-0.97,-0.17,0.37,1.65,-0.18,37010.0,0.03701
295644793.0,7479.0,0.21,-0.97,-0.18,-0.55,-2.56,-0.31,36957.0,0.036957
295682770.0,7480.0,0.21,-0.97,-0.19,0.06,0.79,-0.49,37977.0,0.037977
295720685.0,7481.0,0.2,-0.97,-0.18,1.77,0.79,1.1,37915.0,0.037915
295758703.0,7482.0,0.2,-0.98,-0.17,-0.55,0.0,-0.79,38018.0,0.038018
295796847.0,7483.0,0.21,-0.96,-0.19,-0.67,-1.83,-0.31,38144.0,0.038144
295834689.0,7484.0,0.21,-0.97,-0.19,1.34,1.83,0.31,37842.0,0.037842
295872625.0,7485.0,0.2,-0.97,-0.17,0.37,-0.24,0.06,37936.0,0.037936
295910632.0,7486.0,0.21,-0.97,-0.19,-0.85,-1.65,-0.79,38007.0,0.038007
295948616.0,7487.0,0.21,-0.96,-0.19,0.61,0.73,0.18,37984.0,0.037984
295985578.0,7488.0,0.2,-0.97,-0.18,1.4,0.92,0.73,36962.0,0.036962
296022711.0,7489.0,0.2,-0.97,-0.17,-0.55,0.98,-0.98,37133.0,0.037133
296060531.0,7490.0,0.21,-0.97,-0.19,-0.55,-2.93,-0.12,37820.0,0.03782
296098512.0,7491.0,0.21,-0.97,-0.19,1.16,1.71,0.24,37981.0,0.037981
296135486.0,7492.0,0.2,-0.97,-0.17,1.71,0.55,0.92,36974.0,0.036974
296173571.0,7493.0,0.2,-0.98,-0.17,-0.73,-0.67,-0.92,38085.0,0.038085
296211437.0,7494.0,0.21,-0.96,-0.19,-0.49,-1.4,-0.37,37866.0,0.037866
296248410.0,7495.0,0.2,-0.97,-0.19,1.71,1.34,0.92,36973.0,0.036973
296285392.0,7496.0,0.2,-0.97,-0.16,0.24,0.67,-0.37,36982.0,0.036982
296323369.0,7497.0,0.21,-0.97,-0.18,-1.28,-3.05,-0.85,37977.0,0.037977
296361325.0,7498.0,0.22,-0.97,-0.2,0.85,1.34,0.06,37956.0,0.037956
296398328.0,7499.0,0.2,-0.97,-0.17,2.08,1.34,1.46,37003.0,0.037003
296435321.0,7500.0,0.2,-0.97,-0.17,-1.28,-1.22,-1.34,36993.0,0.036993
296473563.0,7501.0,0.21,-0.96,-0.2,-0.06,-2.38,-0.18,38242.0,0.038242
296511254.0,7502.0,0.21,-0.97,-0.18,2.2,4.03,1.04,37691.0,0.037691
296548614.0,7503.0,0.2,-0.97,-0.16,0.0,-0.98,0.06,37360.0,0.03736
296586207.0,7504.0,0.2,-0.97,-0.18,-2.56,-3.42,-1.71,37593.0,0.037593
296624176.0,7505.0,0.22,-0.96,-0.2,0.43,1.22,0.0,37969.0,0.037969
296661188.0,7506.0,0.2,-0.97,-0.17,2.56,2.26,1.1,37012.0,0.037012
296698135.0,7507.0,0.2,-0.97,-0.16,-1.16,-2.5,-0.98,36947.0,0.036947
296736112.0,7508.0,0.21,-0.97,-0.2,-0.67,-1.4,-0.37,37977.0,0.037977
296774080.0,7509.0,0.21,-0.97,-0.18,2.2,3.54,0.92,37968.0,0.037968
296810090.0,7510.0,0.2,-0.97,-0.16,-0.24,-1.34,-0.37,36010.0,0.03601
296848035.0,7511.0,0.21,-0.97,-0.19,-1.22,-2.75,-0.79,37945.0,0.037945
296886055.0,7512.0,0.21,-0.97,-0.19,2.01,2.93,0.79,38020.0,0.03802
296924006.0,7513.0,0.2,-0.97,-0.16,0.67,0.31,0.06,37951.0,0.037951
296961995.0,7514.0,0.21,-0.97,-0.18,-1.34,-2.81,-0.92,37989.0,0.037989
296999930.0,7515.0,0.21,-0.97,-0.19,1.1,1.89,0.49,37935.0,0.037935
297036930.0,7516.0,0.2,-0.98,-0.16,1.71,1.46,0.61,37000.0,0.037
297073898.0,7517.0,0.2,-0.97,-0.17,-2.38,-2.81,-1.65,36968.0,0.036968
297111857.0,7518.0,0.21,-0.97,-0.2,0.43,-0.18,0.12,37959.0,0.037959
297149864.0,7519.0,0.21,-0.97,-0.18,1.4,2.69,0.18,38007.0,0.038007
297186883.0,7520.0,0.2,-0.97,-0.17,0.92,-1.89,0.55,37019.0,0.037019
297224820.0,7521.0,0.2,-0.97,-0.19,-0.79,-0.12,-0.92,37937.0,0.037937
297262792.0,7522.0,0.21,-0.97,-0.18,0.98,0.73,0.49,37972.0,0.037972
297299771.0,7523.0,0.2,-0.97,-0.18,-0.18,0.37,-0.49,36979.0,0.036979
297337743.0,7524.0,0.2,-0.97,-0.18,0.61,-1.16,0.31,37972.0,0.037972
297375757.0,7525.0,0.2,-0.97,-0.18,-0.18,1.1,-0.55,38014.0,0.038014
297413678.0,7526.0,0.21,-0.96,-0.18,-0.43,-1.16,-0.55,37921.0,0.037921
297451677.0,7527.0,0.21,-0.97,-0.19,1.1,0.43,0.61,37999.0,0.037999
297488654.0,7528.0,0.2,-0.97,-0.17,0.55,1.16,0.0,36977.0,0.036977
297525633.0,7529.0,0.2,-0.97,-0.18,-0.43,-1.71,-0.37,36979.0,0.036979
297563612.0,7530.0,0.21,-0.96,-0.18,0.0,1.16,-0.55,37979.0,0.037979
297601560.0,7531.0,0.2,-0.97,-0.17,1.4,0.0,0.92,37948.0,0.037948
297638716.0,7532.0,0.2,-0.97,-0.18,-1.4,-0.73,-1.34,37156.0,0.037156
297676546.0,7533.0,0.21,-0.97,-0.2,0.43,-1.16,0.24,37830.0,0.03783
297714478.0,7534.0,0.21,-0.97,-0.18,1.71,2.87,0.37,37932.0,0.037932
297751479.0,7535.0,0.2,-0.97,-0.16,-0.18,-1.95,0.0,37001.0,0.037001
297789441.0,7536.0,0.2,-0.97,-0.19,-1.04,-0.67,-1.1,37962.0,0.037962
297827427.0,7537.0,0.21,-0.96,-0.19,1.22,1.34,0.79,37986.0,0.037986
297864401.0,7538.0,0.2,-0.97,-0.17,0.85,0.67,0.31,36974.0,0.036974
297901376.0,7539.0,0.2,-0.97,-0.18,-1.22,-2.14,-1.04,36975.0,0.036975
297939347.0,7540.0,0.21,-0.97,-0.2,0.85,0.12,0.31,37971.0,0.037971
297976329.0,7541.0,0.2,-0.97,-0.17,1.59,2.44,0.43,36982.0,0.036982
298014274.0,7542.0,0.2,-0.97,-0.17,-0.67,-2.14,-0.37,37945.0,0.037945
298052278.0,7543.0,0.21,-0.97,-0.19,-0.79,-0.73,-0.79,38004.0,0.038004
298090255.0,7544.0,0.21,-0.97,-0.18,1.71,1.46,0.79,37977.0,0.037977
298127198.0,7545.0,0.2,-0.97,-0.17,-0.06,-0.06,-0.43,36943.0,0.036943
298165186.0,7546.0,0.21,-0.97,-0.19,-0.67,-2.2,-0.61,37988.0,0.037988
298203150.0,7547.0,0.21,-0.97,-0.19,1.59,2.08,0.61,37964.0,0.037964
298240146.0,7548.0,0.2,-0.97,-0.16,0.31,0.37,0.06,36996.0,0.036996
298277132.0,7549.0,0.21,-0.97,-0.18,-0.98,-2.44,-0.79,36986.0,0.036986
298315072.0,7550.0,0.21,-0.97,-0.19,0.67,0.98,0.12,37940.0,0.03794
298351064.0,7551.0,0.2,-0.97,-0.18,1.4,1.28,0.67,35992.0,0.035992
298388064.0,7552.0,0.2,-0.97,-0.17,-0.55,-0.85,-0.73,37000.0,0.037
298426008.0,7553.0,0.21,-0.97,-0.19,0.0,-1.34,-0.06,37944.0,0.037944
298464070.0,7554.0,0.2,-0.97,-0.18,1.46,2.26,0.49,38062.0,0.038062
298501019.0,7555.0,0.2,-0.97,-0.17,0.0,-0.98,-0.18,36949.0,0.036949
298539085.0,7556.0,0.21,-0.97,-0.19,-1.04,-1.46,-0.85,38066.0,0.038066
298576935.0,7557.0,0.21,-0.97,-0.19,1.16,1.04,0.49,37850.0,0.03785
298613908.0,7558.0,0.2,-0.97,-0.17,0.67,0.61,0.12,36973.0,0.036973
298650894.0,7559.0,0.21,-0.97,-0.18,-0.61,-1.53,-0.67,36986.0,0.036986
298688022.0,7560.0,0.21,-0.97,-0.19,0.85,0.24,0.31,37128.0,0.037128
298725785.0,7561.0,0.2,-0.97,-0.17,0.98,1.53,0.31,37763.0,0.037763
298763852.0,7562.0,0.2,-0.97,-0.17,-0.73,-1.77,-0.55,38067.0,0.038067
298801827.0,7563.0,0.21,-0.97,-0.19,-0.24,-0.37,-0.43,37975.0,0.037975
298839763.0,7564.0,0.21,-0.97,-0.19,1.46,1.65,0.61,37936.0,0.037936
298876759.0,7565.0,0.2,-0.97,-0.17,0.06,-0.12,-0.24,36996.0,0.036996
298914892.0,7566.0,0.21,-0.97,-0.19,-0.61,-1.95,-0.49,38133.0,0.038133
298952706.0,7567.0,0.21,-0.97,-0.19,1.59,1.59,0.67,37814.0,0.037814
298989693.0,7568.0,0.2,-0.97,-0.17,0.31,0.73,-0.06,36987.0,0.036987
299027637.0,7569.0,0.2,-0.97,-0.18,-0.98,-2.5,-0.85,37944.0,0.037944
299065619.0,7570.0,0.21,-0.97,-0.19,0.73,1.04,0.06,37982.0,0.037982
299102628.0,7571.0,0.2,-0.97,-0.17,1.16,0.98,0.55,37009.0,0.037009
299140581.0,7572.0,0.2,-0.97,-0.18,-0.79,-1.59,-0.73,37953.0,0.037953
299178586.0,7573.0,0.21,-0.97,-0.19,0.49,0.12,0.12,38005.0,0.038005
299216582.0,7574.0,0.2,-0.97,-0.17,1.04,1.46,0.24,37996.0,0.037996
299253530.0,7575.0,0.2,-0.97,-0.17,-0.49,-1.71,-0.37,36948.0,0.036948
299291513.0,7576.0,0.21,-0.97,-0.19,-0.06,-0.12,-0.43,37983.0,0.037983
299329636.0,7577.0,0.21,-0.97,-0.18,1.1,1.16,0.31,38123.0,0.038123
299367466.0,7578.0,0.2,-0.97,-0.18,-0.24,-0.92,-0.31,37830.0,0.03783
299405439.0,7579.0,0.21,-0.97,-0.19,0.43,-0.24,0.06,37973.0,0.037973
299443377.0,7580.0,0.2,-0.97,-0.18,0.85,1.28,0.18,37938.0,0.037938
299480437.0,7581.0,0.2,-0.97,-0.18,-0.24,-1.28,-0.37,37060.0,0.03706
299518389.0,7582.0,0.21,-0.97,-0.19,-0.12,-0.12,-0.31,37952.0,0.037952
299556314.0,7583.0,0.21,-0.97,-0.18,0.85,0.73,0.31,37925.0,0.037925
299593284.0,7584.0,0.2,-0.97,-0.18,0.24,-0.37,-0.06,36970.0,0.03697
299631309.0,7585.0,0.21,-0.97,-0.18,0.0,-0.43,-0.18,38025.0,0.038025
299669248.0,7586.0,0.2,-0.97,-0.18,0.79,0.67,0.31,37939.0,0.037939
299707239.0,7587.0,0.2,-0.97,-0.17,0.0,0.06,-0.31,37991.0,0.037991
299745192.0,7588.0,0.21,-0.97,-0.18,0.18,-0.92,-0.12,37953.0,0.037953
299783298.0,7589.0,0.21,-0.97,-0.18,-0.06,0.55,-0.31,38106.0,0.038106
299821163.0,7590.0,0.2,-0.97,-0.18,0.79,-0.12,0.37,37865.0,0.037865
299859138.0,7591.0,0.21,-0.97,-0.18,-0.31,-0.12,-0.61,37975.0,0.037975
299897088.0,7592.0,0.21,-0.97,-0.18,0.67,-0.43,0.37,37950.0,0.03795
299935217.0,7593.0,0.2,-0.97,-0.18,0.61,1.16,-0.06,38129.0,0.038129
299973022.0,7594.0,0.2,-0.97,-0.17,0.06,-0.98,-0.06,37805.0,0.037805
300011017.0,7595.0,0.21,-0.97,-0.18,-0.43,-0.18,-0.67,37995.0,0.037995
300049010.0,7596.0,0.21,-0.97,-0.18,0.92,-0.06,0.49,37993.0,0.037993
300086979.0,7597.0,0.2,-0.97,-0.18,0.37,0.79,-0.12,37969.0,0.037969
300129067.0,7598.0,0.2,-0.97,-0.18,0.0,-1.4,-0.12,42088.0,0.042088
300164706.0,7599.0,0.21,-0.97,-0.19,0.31,0.49,-0.06,35639.0,0.035639
300201901.0,7600.0,0.2,-0.97,-0.17,0.79,0.61,0.24,37195.0,0.037195
300238874.0,7601.0,0.2,-0.97,-0.18,-0.12,-0.92,-0.43,36973.0,0.036973
300276835.0,7602.0,0.21,-0.97,-0.18,-0.18,-0.43,-0.37,37961.0,0.037961
300314819.0,7603.0,0.21,-0.97,-0.18,0.92,0.61,0.43,37984.0,0.037984
300352799.0,7604.0,0.2,-0.97,-0.17,0.12,0.06,-0.18,37980.0,0.03798
300390762.0,7605.0,0.21,-0.97,-0.18,-0.06,-0.92,-0.12,37963.0,0.037963
300428761.0,7606.0,0.2,-0.97,-0.18,0.79,1.04,0.06,37999.0,0.037999
300466763.0,7607.0,0.2,-0.97,-0.17,0.18,-0.37,-0.06,38002.0,0.038002
300505145.0,7608.0,0.21,-0.97,-0.18,-0.61,-0.92,-0.67,38382.0,0.038382
300542705.0,7609.0,0.21,-0.97,-0.19,0.31,0.0,-0.06,37560.0,0.03756
300580660.0,7610.0,0.2,-0.97,-0.18,0.55,0.55,0.06,37955.0,0.037955
300617777.0,7611.0,0.21,-0.97,-0.18,0.06,-0.67,-0.18,37117.0,0.037117
300655622.0,7612.0,0.21,-0.97,-0.18,0.49,0.12,0.0,37845.0,0.037845
300692566.0,7613.0,0.2,-0.97,-0.18,0.67,0.55,0.12,36944.0,0.036944
300729577.0,7614.0,0.2,-0.97,-0.18,-0.06,-0.61,-0.24,37011.0,0.037011
300767541.0,7615.0,0.21,-0.97,-0.18,0.0,-0.49,-0.18,37964.0,0.037964
300805514.0,7616.0,0.21,-0.97,-0.18,0.73,0.67,0.18,37973.0,0.037973
300842495.0,7617.0,0.2,-0.97,-0.18,0.18,0.12,0.0,36981.0,0.036981
300880626.0,7618.0,0.2,-0.97,-0.18,0.0,-0.67,-0.37,38131.0,0.038131
300918434.0,7619.0,0.2,-0.97,-0.18,0.92,0.43,0.49,37808.0,0.037808
300956455.0,7620.0,0.2,-0.97,-0.17,0.18,0.92,-0.43,38021.0,0.038021
300994379.0,7621.0,0.21,-0.97,-0.18,-0.98,-2.2,-0.61,37924.0,0.037924
301032380.0,7622.0,0.21,-0.97,-0.2,0.31,0.43,-0.18,38001.0,0.038001
301070522.0,7623.0,0.21,-0.96,-0.19,1.46,0.67,0.67,38142.0,0.038142
